"build","experimentName","subject","date","time","blockcode","trialcode","list.Condition.currentvalue","cond","percentTrialsStay","practiceblock","cannon","conc","blocknum","trialnum","StaySwitch","hitmiss","angmu","ang","outcome","placementAngle","trial.placeshield_mouse.latency","blockearnings","cannonballs_caught","cannonballs_missed","totalearnings","block.InstructionBlock.timestamp","trial.begin_block.timestamp","trial.mainloop.timestamp","trial.placeshield_mouse.timestamp","trial.showPE.timestamp","trial.cannon_outcome.timestamp","picture.shield.currentitem","list.previouspos.currentvalue","angleup","angledown","outcomeindex"
"6.4.2","Cannonball Task","1","2021-08-16","21:26:09","InstructionBlock","Phase_starts","","0","0.8599999999999999867","1","1","18.7749999999999985789","0","0","0","0","0","0","0","0","0","0","0","0","0","0","0","0","0","0","0","Arc6.png","","0","0","0"
"6.4.2","Cannonball Task","1","2021-08-16","21:26:09","InstructionBlock","Instructions_BeginTask","","0","0.8599999999999999867","1","1","18.7749999999999985789","0","0","0","0","0","0","0","0","0","0","0","0","0","0","0","0","0","0","0","Arc6.png","","0","0","0"
"6.4.2","Cannonball Task","1","2021-08-16","21:26:09","InstructionBlock","Instructions_PlaceShield_delay","","0","0.8599999999999999867","1","1","18.7749999999999985789","0","0","0","0","0","0","0","0","0","0","0","0","0","0","0","0","0","0","0","Arc6.png","","0","0","0"
"6.4.2","Cannonball Task","1","2021-08-16","21:26:09","InstructionBlock","Instructions_PlaceShield_delay","","0","0.8599999999999999867","1","1","18.7749999999999985789","0","0","0","0","0","0","0","0","0","0","0","0","0","0","0","0","0","0","0","Arc6.png","","0","0","0"
"6.4.2","Cannonball Task","1","2021-08-16","21:26:09","InstructionBlock","Instructions_PlaceShield_delay","","0","0.8599999999999999867","1","1","18.7749999999999985789","0","0","0","0","0","0","0","0","0","0","0","0","0","0","0","0","0","0","0","Arc6.png","","0","0","0"
"6.4.2","Cannonball Task","1","2021-08-16","21:26:09","InstructionBlock","lockin","","0","0.8599999999999999867","1","1","18.7749999999999985789","0","0","0","0","0","0","0","0","0","0","0","0","0","0","0","0","0","0","0","Arc6.png","","0","0","0"
"6.4.2","Cannonball Task","1","2021-08-16","21:26:09","InstructionBlock","Instructions_PlaceShield","","0","0.8599999999999999867","1","1","18.7749999999999985789","0","0","0","0","0","0","0","0.8508648647302777812","0","0","0","0","0","0","0","0","0","0","0","Arc6.png","","0.8508648647302777812","0.8508648647302777812","0"
"6.4.2","Cannonball Task","1","2021-08-16","21:26:09","InstructionBlock","Instructions_CannonOutcome","","0","0.8599999999999999867","1","1","18.7749999999999985789","0","0","0","0","0","0","0","0.8508648647302777812","0","0","0","0","0","0","0","0","0","0","0","Arc6.png","","0.8508648647302777812","0.8508648647302777812","0"
"6.4.2","Cannonball Task","1","2021-08-16","21:26:09","InstructionBlock","cannon_outcome","","0","0.8599999999999999867","1","1","18.7749999999999985789","0","0","0","1","0","0","0","0.8508648647302777812","0","0","0","0","0","0","0","0","0","0","9594","Arc6.png","","0.8508648647302777812","0.8508648647302777812","3"
"6.4.2","Cannonball Task","1","2021-08-16","21:26:09","InstructionBlock","Instructions_RevealShield","","0","0.8599999999999999867","2","1","18.7749999999999985789","0","0","0","1","0","0","0","0.8508648647302777812","0","0","0","0","0","0","0","0","0","0","9594","Arc6.png","","0.8508648647302777812","0.8508648647302777812","3"
"6.4.2","Cannonball Task","1","2021-08-16","21:26:09","InstructionBlock","Instructions_RevealShield","","0","0.8599999999999999867","2","1","18.7749999999999985789","0","0","0","1","0","0","0","0.8508648647302777812","0","0","0","0","0","0","0","0","0","0","9594","Arc6.png","","0.8508648647302777812","0.8508648647302777812","3"
"6.4.2","Cannonball Task","1","2021-08-16","21:26:09","InstructionBlock","Instructions_RevealShield","","0","0.8599999999999999867","2","1","18.7749999999999985789","0","0","0","1","0","0","0","0.8508648647302777812","0","0","0","0","0","0","0","0","0","0","9594","Arc6.png","","0.8508648647302777812","0.8508648647302777812","3"
"6.4.2","Cannonball Task","1","2021-08-16","21:26:09","InstructionBlock","mainloop","","0","0.8599999999999999867","2","1","18.7749999999999985789","0","0","0","1","0","0","0","0.8508648647302777812","0","0","0","0","0","0","0","16321","0","0","9594","Arc6.png","","0.8508648647302777812","0.8508648647302777812","3"
"6.4.2","Cannonball Task","1","2021-08-16","21:26:09","InstructionBlock","placeshield_mouse","","0","0.8599999999999999867","2","1","18.7749999999999985789","0","0","0","1","0","0","0","358.63607246839706022","1435","0","0","0","0","0","0","16321","16373","0","9594","Arc6.png","","358.63607246839706022","358.63607246839706022","3"
"6.4.2","Cannonball Task","1","2021-08-16","21:26:09","InstructionBlock","revealshield","","0","0.8599999999999999867","2","1","18.7749999999999985789","0","0","0","1","0","0","0","358.63607246839706022","1435","0","0","0","0","0","0","16321","16373","17817","9594","Arc36.png","","374.63607246839706022","342.63607246839706022","3"
"6.4.2","Cannonball Task","1","2021-08-16","21:26:09","InstructionBlock","cannon_outcome","","0","0.8599999999999999867","2","1","18.7749999999999985789","0","0","0","1","0","0","0","358.63607246839706022","1435","0","1","0","0","0","0","16321","16373","17817","19321","Arc36.png","","374.63607246839706022","342.63607246839706022","5"
"6.4.2","Cannonball Task","1","2021-08-16","21:26:09","InstructionBlock","mainloop","","0","0.8599999999999999867","2","1","18.7749999999999985789","0","0","0","1","0","0","0","358.63607246839706022","1435","0","1","0","0","0","0","19632","16373","17817","19321","Arc36.png","","374.63607246839706022","342.63607246839706022","5"
"6.4.2","Cannonball Task","1","2021-08-16","21:26:09","InstructionBlock","placeshield_mouse","","0","0.8599999999999999867","2","1","18.7749999999999985789","0","0","0","1","0","0","0","358.6425341554694341539","345","0","1","0","0","0","0","19632","19684","17817","19321","Arc36.png","","374.6425341554694341539","342.6425341554694341539","5"
"6.4.2","Cannonball Task","1","2021-08-16","21:26:09","InstructionBlock","revealshield","","0","0.8599999999999999867","2","1","18.7749999999999985789","0","0","0","1","0","0","0","358.6425341554694341539","345","0","1","0","0","0","0","19632","19684","20045","19321","Arc46.png","","379.6425341554694341539","337.6425341554694341539","5"
"6.4.2","Cannonball Task","1","2021-08-16","21:26:09","InstructionBlock","cannon_outcome","","0","0.8599999999999999867","2","1","18.7749999999999985789","0","0","0","1","0","0","0","358.6425341554694341539","345","0","2","0","0","0","0","19632","19684","20045","21548","Arc46.png","","379.6425341554694341539","337.6425341554694341539","5"
"6.4.2","Cannonball Task","1","2021-08-16","21:26:09","InstructionBlock","mainloop","","0","0.8599999999999999867","2","1","18.7749999999999985789","0","0","0","1","0","0","0","358.6425341554694341539","345","0","2","0","0","0","0","21866","19684","20045","21548","Arc46.png","","379.6425341554694341539","337.6425341554694341539","5"
"6.4.2","Cannonball Task","1","2021-08-16","21:26:09","InstructionBlock","placeshield_mouse","","0","0.8599999999999999867","2","1","18.7749999999999985789","0","0","0","1","0","0","0","358.6425341554694341539","271","0","2","0","0","0","0","21866","21918","20045","21548","Arc46.png","","379.6425341554694341539","337.6425341554694341539","5"
"6.4.2","Cannonball Task","1","2021-08-16","21:26:09","InstructionBlock","revealshield","","0","0.8599999999999999867","2","1","18.7749999999999985789","0","0","0","1","0","0","0","358.6425341554694341539","271","0","2","0","0","0","0","21866","21918","22205","21548","Arc26.png","","369.6425341554694341539","347.6425341554694341539","5"
"6.4.2","Cannonball Task","1","2021-08-16","21:26:09","InstructionBlock","cannon_outcome","","0","0.8599999999999999867","2","1","18.7749999999999985789","0","0","0","1","0","0","0","358.6425341554694341539","271","0","3","0","0","0","0","21866","21918","22205","23708","Arc26.png","","369.6425341554694341539","347.6425341554694341539","5"
"6.4.2","Cannonball Task","1","2021-08-16","21:26:09","InstructionBlock","mainloop","","0","0.8599999999999999867","2","1","18.7749999999999985789","0","0","0","1","0","0","0","358.6425341554694341539","271","0","3","0","0","0","0","24017","21918","22205","23708","Arc26.png","","369.6425341554694341539","347.6425341554694341539","5"
"6.4.2","Cannonball Task","1","2021-08-16","21:26:09","InstructionBlock","placeshield_mouse","","0","0.8599999999999999867","2","1","18.7749999999999985789","0","0","0","1","0","0","0","358.6425341554694341539","844","0","3","0","0","0","0","24017","24068","22205","23708","Arc26.png","","369.6425341554694341539","347.6425341554694341539","5"
"6.4.2","Cannonball Task","1","2021-08-16","21:26:09","InstructionBlock","revealshield","","0","0.8599999999999999867","2","1","18.7749999999999985789","0","0","0","1","0","0","0","358.6425341554694341539","844","0","3","0","0","0","0","24017","24068","24927","23708","Arc48.png","","380.6425341554694341539","336.6425341554694341539","5"
"6.4.2","Cannonball Task","1","2021-08-16","21:26:09","InstructionBlock","cannon_outcome","","0","0.8599999999999999867","2","1","18.7749999999999985789","0","0","0","1","0","0","0","358.6425341554694341539","844","0","4","0","0","0","0","24017","24068","24927","26430","Arc48.png","","380.6425341554694341539","336.6425341554694341539","5"
"6.4.2","Cannonball Task","1","2021-08-16","21:26:09","InstructionBlock","PracticeBlock_CannonMoves","","0","0.8599999999999999867","3","1","18.7749999999999985789","0","0","0","1","0","0","0","358.6425341554694341539","844","0","4","0","0","0","0","24017","24068","24927","26430","Arc48.png","","380.6425341554694341539","336.6425341554694341539","5"
"6.4.2","Cannonball Task","1","2021-08-16","21:26:09","InstructionBlock","PracticeBlock_CannonNotAccurate","","0","0.8599999999999999867","3","1","18.7749999999999985789","0","0","0","1","0","0","0","358.6425341554694341539","844","0","4","0","0","0","0","24017","24068","24927","26430","Arc48.png","","380.6425341554694341539","336.6425341554694341539","5"
"6.4.2","Cannonball Task","1","2021-08-16","21:26:09","InstructionBlock","ClicktoContinue","","0","0.8599999999999999867","3","1","18.7749999999999985789","0","0","0","1","0","0","0","358.6425341554694341539","844","0","4","0","0","0","0","24017","24068","24927","26430","Arc48.png","","380.6425341554694341539","336.6425341554694341539","5"
"6.4.2","Cannonball Task","1","2021-08-16","21:26:09","InstructionBlock","mainloop","","0","0.8599999999999999867","3","1","18.7749999999999985789","0","0","0","1","235.5155493681122607086","0","235.5155493681122607086","358.6425341554694341539","844","0","4","0","0","0","0","31486","24068","24927","26430","Arc48.png","","380.6425341554694341539","336.6425341554694341539","5"
"6.4.2","Cannonball Task","1","2021-08-16","21:26:09","InstructionBlock","placeshield_mouse","","0","0.8599999999999999867","3","1","18.7749999999999985789","0","0","0","1","235.5155493681122607086","0","235.5155493681122607086","233.2857970239537621637","2500","0","4","0","0","0","0","31486","31537","24927","26430","Arc48.png","","255.2857970239537621637","211.2857970239537621637","5"
"6.4.2","Cannonball Task","1","2021-08-16","21:26:09","InstructionBlock","cannon_outcome","","0","0.8599999999999999867","3","1","18.7749999999999985789","0","0","0","1","235.5155493681122607086","0","235.5155493681122607086","233.2857970239537621637","2500","0","4","0","0","0","0","31486","31537","24927","34052","Arc48.png","","255.2857970239537621637","211.2857970239537621637","1"
"6.4.2","Cannonball Task","1","2021-08-16","21:26:09","InstructionBlock","mainloop","","0","0.8599999999999999867","3","1","18.7749999999999985789","0","0","0","1","140.9371286958775328912","0","140.9371286958775328912","233.2857970239537621637","2500","0","4","0","0","0","0","35164","31537","24927","34052","Arc48.png","","255.2857970239537621637","211.2857970239537621637","1"
"6.4.2","Cannonball Task","1","2021-08-16","21:26:09","InstructionBlock","placeshield_mouse","","0","0.8599999999999999867","3","1","18.7749999999999985789","0","0","0","1","140.9371286958775328912","0","140.9371286958775328912","138.456619172041996535","1035","0","4","0","0","0","0","35164","35215","24927","34052","Arc48.png","","160.456619172041996535","116.456619172041996535","1"
"6.4.2","Cannonball Task","1","2021-08-16","21:26:09","InstructionBlock","revealshield","","0","0.8599999999999999867","3","1","18.7749999999999985789","0","0","0","1","140.9371286958775328912","0","140.9371286958775328912","138.456619172041996535","1035","0","4","0","0","0","0","35164","35215","36255","34052","Arc28.png","","150.456619172041996535","126.456619172041996535","1"
"6.4.2","Cannonball Task","1","2021-08-16","21:26:09","InstructionBlock","cannon_outcome","","0","0.8599999999999999867","3","1","18.7749999999999985789","0","0","0","1","140.9371286958775328912","0","140.9371286958775328912","138.456619172041996535","1035","0","5","0","0","0","0","35164","35215","36255","37759","Arc28.png","","150.456619172041996535","126.456619172041996535","5"
"6.4.2","Cannonball Task","1","2021-08-16","21:26:09","InstructionBlock","mainloop","","0","0.8599999999999999867","3","1","18.7749999999999985789","0","0","0","1","100.1355023635866814402","0","100.1355023635866814402","138.456619172041996535","1035","0","5","0","0","0","0","38071","35215","36255","37759","Arc28.png","","150.456619172041996535","126.456619172041996535","5"
"6.4.2","Cannonball Task","1","2021-08-16","21:26:09","InstructionBlock","placeshield_mouse","","0","0.8599999999999999867","3","1","18.7749999999999985789","0","0","0","1","100.1355023635866814402","0","100.1355023635866814402","99.4623222080256113031","1301","0","5","0","0","0","0","38071","38122","36255","37759","Arc28.png","","111.4623222080256113031","87.4623222080256113031","5"
"6.4.2","Cannonball Task","1","2021-08-16","21:26:09","InstructionBlock","revealshield","","0","0.8599999999999999867","3","1","18.7749999999999985789","0","0","0","1","100.1355023635866814402","0","100.1355023635866814402","99.4623222080256113031","1301","0","5","0","0","0","0","38071","38122","39439","37759","Arc40.png","","117.4623222080256113031","81.4623222080256113031","5"
"6.4.2","Cannonball Task","1","2021-08-16","21:26:09","InstructionBlock","cannon_outcome","","0","0.8599999999999999867","3","1","18.7749999999999985789","0","0","0","1","100.1355023635866814402","0","100.1355023635866814402","99.4623222080256113031","1301","0","6","0","0","0","0","38071","38122","39439","40941","Arc40.png","","117.4623222080256113031","81.4623222080256113031","5"
"6.4.2","Cannonball Task","1","2021-08-16","21:26:09","InstructionBlock","EndPractice","","CHANGEPOINT","0.8599999999999999867","4","1","18.7749999999999985789","0","0","0","1","100.1355023635866814402","0","100.1355023635866814402","99.4623222080256113031","1301","3","0","0","3","0","0","38071","38122","39439","40941","Arc40.png","","117.4623222080256113031","81.4623222080256113031","5"
"6.4.2","Cannonball Task","1","2021-08-16","21:26:09","InstructionBlock","EndPractice","","CHANGEPOINT","0.8599999999999999867","4","1","18.7749999999999985789","0","0","0","1","100.1355023635866814402","0","100.1355023635866814402","99.4623222080256113031","1301","0","0","0","3","0","0","38071","38122","39439","40941","Arc40.png","","117.4623222080256113031","81.4623222080256113031","5"
"6.4.2","Cannonball Task","1","2021-08-16","21:26:09","InstructionBlock","EndPractice","","CHANGEPOINT","0.8599999999999999867","4","1","18.7749999999999985789","0","0","0","1","100.1355023635866814402","0","100.1355023635866814402","99.4623222080256113031","1301","0","0","0","3","0","0","38071","38122","39439","40941","Arc40.png","","117.4623222080256113031","81.4623222080256113031","5"
"6.4.2","Cannonball Task","1","2021-08-16","21:26:09","begin_round","Phase_starts","CHANGEPOINT","CHANGEPOINT","0.8599999999999999867","4","1","18.7749999999999985789","0","0","0","1","100.1355023635866814402","0","100.1355023635866814402","99.4623222080256113031","1301","0","0","0","3","0","0","38071","38122","39439","40941","Arc40.png","","117.4623222080256113031","81.4623222080256113031","5"
"6.4.2","Cannonball Task","1","2021-08-16","21:26:09","begin_round","mainloop","CHANGEPOINT","CHANGEPOINT","0.8599999999999999867","4","1","18.7749999999999985789","0","0","0","1","192.4903879390308816255","0","228.1210695583172309853","99.4623222080256113031","1301","0","0","0","3","0","45683","49924","38122","39439","40941","Arc40.png","","117.4623222080256113031","81.4623222080256113031","5"
"6.4.2","Cannonball Task","1","2021-08-16","21:26:09","begin_round","placeshield_mouse","CHANGEPOINT","CHANGEPOINT","0.8599999999999999867","4","1","18.7749999999999985789","0","0","0","1","192.4903879390308816255","0","228.1210695583172309853","193.7003986653714662225","1596","0","0","0","3","0","45683","49924","49975","39439","40941","Arc40.png","","211.7003986653714662225","175.7003986653714662225","5"
"6.4.2","Cannonball Task","1","2021-08-16","21:26:09","begin_round","revealshield","CHANGEPOINT","CHANGEPOINT","0.8599999999999999867","4","1","18.7749999999999985789","0","0","0","1","192.4903879390308816255","0","228.1210695583172309853","193.7003986653714662225","1596","0","0","0","3","0","45683","49924","49975","51589","40941","Arc10.png","","196.7003986653714662225","190.7003986653714662225","5"
"6.4.2","Cannonball Task","1","2021-08-16","21:26:09","begin_round","cannon_outcome","CHANGEPOINT","CHANGEPOINT","0.8599999999999999867","4","1","18.7749999999999985789","0","0","0","0","192.4903879390308816255","0","228.1210695583172309853","193.7003986653714662225","1596","0","0","1","3","0","45683","49924","49975","51589","53091","Arc10.png","","196.7003986653714662225","190.7003986653714662225","6"
"6.4.2","Cannonball Task","1","2021-08-16","21:26:09","begin_round","mainloop","CHANGEPOINT","CHANGEPOINT","0.8599999999999999867","4","1","18.7749999999999985789","0","0","1","0","354.6840466360291657111","0","379.6249829333318643876","193.7003986653714662225","1596","0","0","1","3","0","45683","53408","49975","51589","53091","Arc10.png","","196.7003986653714662225","190.7003986653714662225","6"
"6.4.2","Cannonball Task","1","2021-08-16","21:26:09","begin_round","placeshield_mouse","CHANGEPOINT","CHANGEPOINT","0.8599999999999999867","4","1","18.7749999999999985789","0","0","1","0","354.6840466360291657111","0","379.6249829333318643876","193.7003986653714662225","275","0","0","1","3","0","45683","53408","53460","51589","53091","Arc10.png","","196.7003986653714662225","190.7003986653714662225","6"
"6.4.2","Cannonball Task","1","2021-08-16","21:26:09","begin_round","revealshield","CHANGEPOINT","CHANGEPOINT","0.8599999999999999867","4","1","18.7749999999999985789","0","0","1","0","354.6840466360291657111","0","379.6249829333318643876","193.7003986653714662225","275","0","0","1","3","0","45683","53408","53460","53750","53091","Arc16.png","","199.7003986653714662225","187.7003986653714662225","6"
"6.4.2","Cannonball Task","1","2021-08-16","21:26:09","begin_round","cannon_outcome","CHANGEPOINT","CHANGEPOINT","0.8599999999999999867","4","1","18.7749999999999985789","0","0","1","0","354.6840466360291657111","0","379.6249829333318643876","193.7003986653714662225","275","0","0","2","3","0","45683","53408","53460","53750","55254","Arc16.png","","199.7003986653714662225","187.7003986653714662225","6"
"6.4.2","Cannonball Task","1","2021-08-16","21:26:09","begin_round","mainloop","CHANGEPOINT","CHANGEPOINT","0.8599999999999999867","4","1","18.7749999999999985789","0","0","0","0","354.6840466360291657111","0","343.9407164849207561019","193.7003986653714662225","275","0","0","2","3","0","45683","55559","53460","53750","55254","Arc16.png","","199.7003986653714662225","187.7003986653714662225","6"
"6.4.2","Cannonball Task","1","2021-08-16","21:26:09","begin_round","placeshield_mouse","CHANGEPOINT","CHANGEPOINT","0.8599999999999999867","4","1","18.7749999999999985789","0","0","0","0","354.6840466360291657111","0","343.9407164849207561019","356.1493611760892008533","867","0","0","2","3","0","45683","55559","55611","53750","55254","Arc16.png","","362.1493611760892008533","350.1493611760892008533","6"
"6.4.2","Cannonball Task","1","2021-08-16","21:26:09","begin_round","revealshield","CHANGEPOINT","CHANGEPOINT","0.8599999999999999867","4","1","18.7749999999999985789","0","0","0","0","354.6840466360291657111","0","343.9407164849207561019","356.1493611760892008533","867","0","0","2","3","0","45683","55559","55611","56493","55254","Arc56.png","","382.1493611760892008533","330.1493611760892008533","6"
"6.4.2","Cannonball Task","1","2021-08-16","21:26:09","begin_round","cannon_outcome","CHANGEPOINT","CHANGEPOINT","0.8599999999999999867","4","1","18.7749999999999985789","0","0","0","1","354.6840466360291657111","0","343.9407164849207561019","356.1493611760892008533","867","0","1","2","3","0","45683","55559","55611","56493","57999","Arc56.png","","382.1493611760892008533","330.1493611760892008533","5"
"6.4.2","Cannonball Task","1","2021-08-16","21:26:09","begin_round","mainloop","CHANGEPOINT","CHANGEPOINT","0.8599999999999999867","4","1","18.7749999999999985789","0","0","1","1","10.5928229192720770868","0","-10.3631211250754518005","356.1493611760892008533","867","0","1","2","3","0","45683","58310","55611","56493","57999","Arc56.png","","382.1493611760892008533","330.1493611760892008533","5"
"6.4.2","Cannonball Task","1","2021-08-16","21:26:09","begin_round","placeshield_mouse","CHANGEPOINT","CHANGEPOINT","0.8599999999999999867","4","1","18.7749999999999985789","0","0","1","1","10.5928229192720770868","0","-10.3631211250754518005","9.9751267204586415716","749","0","1","2","3","0","45683","58310","58361","56493","57999","Arc56.png","","35.9751267204586397952","-16.0248732795413602048","5"
"6.4.2","Cannonball Task","1","2021-08-16","21:26:09","begin_round","revealshield","CHANGEPOINT","CHANGEPOINT","0.8599999999999999867","4","1","18.7749999999999985789","0","0","1","1","10.5928229192720770868","0","-10.3631211250754518005","9.9751267204586415716","749","0","1","2","3","0","45683","58310","58361","59126","57999","Arc58.png","","36.9751267204586397952","-17.0248732795413602048","5"
"6.4.2","Cannonball Task","1","2021-08-16","21:26:09","begin_round","cannon_outcome","CHANGEPOINT","CHANGEPOINT","0.8599999999999999867","4","1","18.7749999999999985789","0","0","1","1","10.5928229192720770868","0","-10.3631211250754518005","9.9751267204586415716","749","0","2","2","3","0","45683","58310","58361","59126","60630","Arc58.png","","36.9751267204586397952","-17.0248732795413602048","5"
"6.4.2","Cannonball Task","1","2021-08-16","21:26:09","begin_round","EndPracticePhase","CHANGEPOINT","CHANGEPOINT","0.8599999999999999867","5","1","18.7749999999999985789","0","0","1","1","10.5928229192720770868","0","-10.3631211250754518005","9.9751267204586415716","749","1","2","2","4","0","45683","58310","58361","59126","60630","Arc58.png","","36.9751267204586397952","-17.0248732795413602048","5"
"6.4.2","Cannonball Task","1","2021-08-16","21:26:09","begin_round","PracticeBlock_CannonNotVisible","CHANGEPOINT","CHANGEPOINT","0.8599999999999999867","5","2","18.7749999999999985789","0","1","1","1","225.735529574038366718","0","-10.3631211250754518005","9.9751267204586415716","749","1","2","2","4","0","45683","58310","58361","59126","60630","Arc58.png","","36.9751267204586397952","-17.0248732795413602048","5"
"6.4.2","Cannonball Task","1","2021-08-16","21:26:09","begin_round","mainloop","CHANGEPOINT","CHANGEPOINT","0.8599999999999999867","5","2","18.7749999999999985789","0","1","0","1","225.735529574038366718","0","225.3951462867033797011","9.9751267204586415716","749","1","2","2","4","0","45683","63863","58361","59126","60630","Arc58.png","","36.9751267204586397952","-17.0248732795413602048","5"
"6.4.2","Cannonball Task","1","2021-08-16","21:26:09","begin_round","placeshield_mouse","CHANGEPOINT","CHANGEPOINT","0.8599999999999999867","5","2","18.7749999999999985789","0","1","0","1","225.735529574038366718","0","225.3951462867033797011","4.6668583714389964001","869","1","2","2","4","0","45683","63863","63914","59126","60630","Arc58.png","","31.6668583714389981765","-22.3331416285610018235","5"
"6.4.2","Cannonball Task","1","2021-08-16","21:26:09","begin_round","revealshield","CHANGEPOINT","CHANGEPOINT","0.8599999999999999867","5","2","18.7749999999999985789","0","1","0","1","225.735529574038366718","0","225.3951462867033797011","4.6668583714389964001","869","1","2","2","4","0","45683","63863","63914","64797","60630","Arc34.png","","19.6668583714389981765","-10.3331416285610035999","5"
"6.4.2","Cannonball Task","1","2021-08-16","21:26:09","begin_round","cannon_outcome","CHANGEPOINT","CHANGEPOINT","0.8599999999999999867","5","2","18.7749999999999985789","0","1","0","1","225.735529574038366718","0","225.3951462867033797011","4.6668583714389964001","869","1","2","2","4","0","45683","63863","63914","64797","66301","Arc34.png","","19.6668583714389981765","-10.3331416285610035999","5"
"6.4.2","Cannonball Task","1","2021-08-16","21:26:09","begin_round","mainloop","CHANGEPOINT","CHANGEPOINT","0.8599999999999999867","5","2","18.7749999999999985789","0","1","0","1","225.735529574038366718","0","224.0032186291450386761","4.6668583714389964001","869","1","2","2","4","0","45683","66612","63914","64797","66301","Arc34.png","","19.6668583714389981765","-10.3331416285610035999","5"
"6.4.2","Cannonball Task","1","2021-08-16","21:26:09","begin_round","placeshield_mouse","CHANGEPOINT","CHANGEPOINT","0.8599999999999999867","5","2","18.7749999999999985789","0","1","0","1","225.735529574038366718","0","224.0032186291450386761","221.8939729043835598077","648","1","2","2","4","0","45683","66612","66664","64797","66301","Arc34.png","","236.8939729043835598077","206.8939729043835598077","5"
"6.4.2","Cannonball Task","1","2021-08-16","21:26:09","begin_round","revealshield","CHANGEPOINT","CHANGEPOINT","0.8599999999999999867","5","2","18.7749999999999985789","0","1","0","1","225.735529574038366718","0","224.0032186291450386761","221.8939729043835598077","648","1","2","2","4","0","45683","66612","66664","67327","66301","Arc20.png","","229.8939729043835598077","213.8939729043835598077","5"
"6.4.2","Cannonball Task","1","2021-08-16","21:26:09","begin_round","cannon_outcome","CHANGEPOINT","CHANGEPOINT","0.8599999999999999867","5","2","18.7749999999999985789","0","1","0","1","225.735529574038366718","0","224.0032186291450386761","221.8939729043835598077","648","1","3","2","4","0","45683","66612","66664","67327","68829","Arc20.png","","229.8939729043835598077","213.8939729043835598077","5"
"6.4.2","Cannonball Task","1","2021-08-16","21:26:09","begin_round","mainloop","CHANGEPOINT","CHANGEPOINT","0.8599999999999999867","5","2","18.7749999999999985789","0","1","0","1","225.735529574038366718","0","251.7644872810998037949","221.8939729043835598077","648","1","3","2","4","0","45683","69146","66664","67327","68829","Arc20.png","","229.8939729043835598077","213.8939729043835598077","5"
"6.4.2","Cannonball Task","1","2021-08-16","21:26:09","begin_round","placeshield_mouse","CHANGEPOINT","CHANGEPOINT","0.8599999999999999867","5","2","18.7749999999999985789","0","1","0","1","225.735529574038366718","0","251.7644872810998037949","220.7205364697547906871","296","1","3","2","4","0","45683","69146","69197","67327","68829","Arc20.png","","228.7205364697547906871","212.7205364697547906871","5"
"6.4.2","Cannonball Task","1","2021-08-16","21:26:09","begin_round","revealshield","CHANGEPOINT","CHANGEPOINT","0.8599999999999999867","5","2","18.7749999999999985789","0","1","0","1","225.735529574038366718","0","251.7644872810998037949","220.7205364697547906871","296","1","3","2","4","0","45683","69146","69197","69510","68829","Arc22.png","","229.7205364697547906871","211.7205364697547906871","5"
"6.4.2","Cannonball Task","1","2021-08-16","21:26:09","begin_round","cannon_outcome","CHANGEPOINT","CHANGEPOINT","0.8599999999999999867","5","2","18.7749999999999985789","0","1","0","0","225.735529574038366718","0","251.7644872810998037949","220.7205364697547906871","296","1","3","3","4","0","45683","69146","69197","69510","71013","Arc22.png","","229.7205364697547906871","211.7205364697547906871","6"
"6.4.2","Cannonball Task","1","2021-08-16","21:26:09","begin_round","Reminder","CHANGEPOINT","CHANGEPOINT","0.8599999999999999867","5","2","18.7749999999999985789","0","1","0","0","225.735529574038366718","0","251.7644872810998037949","220.7205364697547906871","296","1","3","3","4","0","45683","69146","69197","69510","71013","Arc22.png","","229.7205364697547906871","211.7205364697547906871","6"
"6.4.2","Cannonball Task","1","2021-08-16","21:26:09","begin_round","mainloop","CHANGEPOINT","CHANGEPOINT","0.8599999999999999867","5","2","18.7749999999999985789","0","1","0","0","225.735529574038366718","0","176.7426595122880144118","220.7205364697547906871","296","1","3","3","4","0","45683","72581","69197","69510","71013","Arc22.png","","229.7205364697547906871","211.7205364697547906871","6"
"6.4.2","Cannonball Task","1","2021-08-16","21:26:09","begin_round","placeshield_mouse","CHANGEPOINT","CHANGEPOINT","0.8599999999999999867","5","2","18.7749999999999985789","0","1","0","0","225.735529574038366718","0","176.7426595122880144118","253.6104596659652372637","630","1","3","3","4","0","45683","72581","72632","69510","71013","Arc22.png","","262.610459665965208842","244.6104596659652372637","6"
"6.4.2","Cannonball Task","1","2021-08-16","21:26:09","begin_round","revealshield","CHANGEPOINT","CHANGEPOINT","0.8599999999999999867","5","2","18.7749999999999985789","0","1","0","0","225.735529574038366718","0","176.7426595122880144118","253.6104596659652372637","630","1","3","3","4","0","45683","72581","72632","73278","71013","Arc50.png","","276.610459665965208842","230.6104596659652372637","6"
"6.4.2","Cannonball Task","1","2021-08-16","21:26:09","begin_round","cannon_outcome","CHANGEPOINT","CHANGEPOINT","0.8599999999999999867","5","2","18.7749999999999985789","0","1","0","0","225.735529574038366718","0","176.7426595122880144118","253.6104596659652372637","630","1","3","4","4","0","45683","72581","72632","73278","74781","Arc50.png","","276.610459665965208842","230.6104596659652372637","6"
"6.4.2","Cannonball Task","1","2021-08-16","21:26:09","begin_round","Reminder","CHANGEPOINT","CHANGEPOINT","0.8599999999999999867","5","2","18.7749999999999985789","0","1","0","0","225.735529574038366718","0","176.7426595122880144118","253.6104596659652372637","630","1","3","4","4","0","45683","72581","72632","73278","74781","Arc50.png","","276.610459665965208842","230.6104596659652372637","6"
"6.4.2","Cannonball Task","1","2021-08-16","21:26:09","begin_round","mainloop","CHANGEPOINT","CHANGEPOINT","0.8599999999999999867","5","2","18.7749999999999985789","0","1","0","0","225.735529574038366718","0","217.5921385368421567819","253.6104596659652372637","630","1","3","4","4","0","45683","76417","72632","73278","74781","Arc50.png","","276.610459665965208842","230.6104596659652372637","6"
"6.4.2","Cannonball Task","1","2021-08-16","21:26:09","begin_round","placeshield_mouse","CHANGEPOINT","CHANGEPOINT","0.8599999999999999867","5","2","18.7749999999999985789","0","1","0","0","225.735529574038366718","0","217.5921385368421567819","179.1615850255977306915","677","1","3","4","4","0","45683","76417","76469","73278","74781","Arc50.png","","202.1615850255977306915","156.1615850255977306915","6"
"6.4.2","Cannonball Task","1","2021-08-16","21:26:09","begin_round","revealshield","CHANGEPOINT","CHANGEPOINT","0.8599999999999999867","5","2","18.7749999999999985789","0","1","0","0","225.735529574038366718","0","217.5921385368421567819","179.1615850255977306915","677","1","3","4","4","0","45683","76417","76469","77159","74781","Arc12.png","","183.1615850255977306915","175.1615850255977306915","6"
"6.4.2","Cannonball Task","1","2021-08-16","21:26:09","begin_round","cannon_outcome","CHANGEPOINT","CHANGEPOINT","0.8599999999999999867","5","2","18.7749999999999985789","0","1","0","0","225.735529574038366718","0","217.5921385368421567819","179.1615850255977306915","677","1","3","5","4","0","45683","76417","76469","77159","78663","Arc12.png","","183.1615850255977306915","175.1615850255977306915","6"
"6.4.2","Cannonball Task","1","2021-08-16","21:26:09","begin_round","Reminder","CHANGEPOINT","CHANGEPOINT","0.8599999999999999867","5","2","18.7749999999999985789","0","1","0","0","225.735529574038366718","0","217.5921385368421567819","179.1615850255977306915","677","1","3","5","4","0","45683","76417","76469","77159","78663","Arc12.png","","183.1615850255977306915","175.1615850255977306915","6"
"6.4.2","Cannonball Task","1","2021-08-16","21:26:09","begin_round","mainloop","CHANGEPOINT","CHANGEPOINT","0.8599999999999999867","5","2","18.7749999999999985789","0","1","0","0","225.735529574038366718","0","172.395933191444868271","179.1615850255977306915","677","1","3","5","4","0","45683","79950","76469","77159","78663","Arc12.png","","183.1615850255977306915","175.1615850255977306915","6"
"6.4.2","Cannonball Task","1","2021-08-16","21:26:09","begin_round","placeshield_mouse","CHANGEPOINT","CHANGEPOINT","0.8599999999999999867","5","2","18.7749999999999985789","0","1","0","0","225.735529574038366718","0","172.395933191444868271","215.191578995172960731","731","1","3","5","4","0","45683","79950","80001","77159","78663","Arc12.png","","219.191578995172960731","211.191578995172960731","6"
"6.4.2","Cannonball Task","1","2021-08-16","21:26:09","begin_round","revealshield","CHANGEPOINT","CHANGEPOINT","0.8599999999999999867","5","2","18.7749999999999985789","0","1","0","0","225.735529574038366718","0","172.395933191444868271","215.191578995172960731","731","1","3","5","4","0","45683","79950","80001","80748","78663","Arc52.png","","239.191578995172960731","191.191578995172960731","6"
"6.4.2","Cannonball Task","1","2021-08-16","21:26:09","begin_round","cannon_outcome","CHANGEPOINT","CHANGEPOINT","0.8599999999999999867","5","2","18.7749999999999985789","0","1","0","0","225.735529574038366718","0","172.395933191444868271","215.191578995172960731","731","1","3","6","4","0","45683","79950","80001","80748","82252","Arc52.png","","239.191578995172960731","191.191578995172960731","6"
"6.4.2","Cannonball Task","1","2021-08-16","21:26:09","begin_round","Reminder","CHANGEPOINT","CHANGEPOINT","0.8599999999999999867","5","2","18.7749999999999985789","0","1","0","0","225.735529574038366718","0","172.395933191444868271","215.191578995172960731","731","1","3","6","4","0","45683","79950","80001","80748","82252","Arc52.png","","239.191578995172960731","191.191578995172960731","6"
"6.4.2","Cannonball Task","1","2021-08-16","21:26:09","begin_round","mainloop","CHANGEPOINT","CHANGEPOINT","0.8599999999999999867","5","2","18.7749999999999985789","0","1","0","0","225.735529574038366718","0","213.496034717805883929","215.191578995172960731","731","1","3","6","4","0","45683","83302","80001","80748","82252","Arc52.png","","239.191578995172960731","191.191578995172960731","6"
"6.4.2","Cannonball Task","1","2021-08-16","21:26:09","begin_round","placeshield_mouse","CHANGEPOINT","CHANGEPOINT","0.8599999999999999867","5","2","18.7749999999999985789","0","1","0","0","225.735529574038366718","0","213.496034717805883929","193.454252180703463182","677","1","3","6","4","0","45683","83302","83353","80748","82252","Arc52.png","","217.454252180703463182","169.454252180703463182","6"
"6.4.2","Cannonball Task","1","2021-08-16","21:26:09","begin_round","revealshield","CHANGEPOINT","CHANGEPOINT","0.8599999999999999867","5","2","18.7749999999999985789","0","1","0","0","225.735529574038366718","0","213.496034717805883929","193.454252180703463182","677","1","3","6","4","0","45683","83302","83353","84044","82252","Arc32.png","","207.454252180703463182","179.454252180703463182","6"
"6.4.2","Cannonball Task","1","2021-08-16","21:26:09","begin_round","cannon_outcome","CHANGEPOINT","CHANGEPOINT","0.8599999999999999867","5","2","18.7749999999999985789","0","1","0","0","225.735529574038366718","0","213.496034717805883929","193.454252180703463182","677","1","3","7","4","0","45683","83302","83353","84044","85547","Arc32.png","","207.454252180703463182","179.454252180703463182","6"
"6.4.2","Cannonball Task","1","2021-08-16","21:26:09","begin_round","Reminder","CHANGEPOINT","CHANGEPOINT","0.8599999999999999867","5","2","18.7749999999999985789","0","1","0","0","225.735529574038366718","0","213.496034717805883929","193.454252180703463182","677","1","3","7","4","0","45683","83302","83353","84044","85547","Arc32.png","","207.454252180703463182","179.454252180703463182","6"
"6.4.2","Cannonball Task","1","2021-08-16","21:26:09","begin_round","mainloop","CHANGEPOINT","CHANGEPOINT","0.8599999999999999867","5","2","18.7749999999999985789","0","1","0","0","225.735529574038366718","0","227.7084188105168323091","193.454252180703463182","677","1","3","7","4","0","45683","86519","83353","84044","85547","Arc32.png","","207.454252180703463182","179.454252180703463182","6"
"6.4.2","Cannonball Task","1","2021-08-16","21:26:09","begin_round","placeshield_mouse","CHANGEPOINT","CHANGEPOINT","0.8599999999999999867","5","2","18.7749999999999985789","0","1","0","0","225.735529574038366718","0","227.7084188105168323091","207.8696984731564043614","721","1","3","7","4","0","45683","86519","86571","84044","85547","Arc32.png","","221.8696984731564043614","193.8696984731564043614","6"
"6.4.2","Cannonball Task","1","2021-08-16","21:26:09","begin_round","revealshield","CHANGEPOINT","CHANGEPOINT","0.8599999999999999867","5","2","18.7749999999999985789","0","1","0","0","225.735529574038366718","0","227.7084188105168323091","207.8696984731564043614","721","1","3","7","4","0","45683","86519","86571","87306","85547","Arc6.png","","208.8696984731564043614","206.8696984731564043614","6"
"6.4.2","Cannonball Task","1","2021-08-16","21:26:09","begin_round","cannon_outcome","CHANGEPOINT","CHANGEPOINT","0.8599999999999999867","5","2","18.7749999999999985789","0","1","0","0","225.735529574038366718","0","227.7084188105168323091","207.8696984731564043614","721","1","3","8","4","0","45683","86519","86571","87306","88810","Arc6.png","","208.8696984731564043614","206.8696984731564043614","6"
"6.4.2","Cannonball Task","1","2021-08-16","21:26:09","begin_round","Reminder","CHANGEPOINT","CHANGEPOINT","0.8599999999999999867","5","2","18.7749999999999985789","0","1","0","0","225.735529574038366718","0","227.7084188105168323091","207.8696984731564043614","721","1","3","8","4","0","45683","86519","86571","87306","88810","Arc6.png","","208.8696984731564043614","206.8696984731564043614","6"
"6.4.2","Cannonball Task","1","2021-08-16","21:26:09","begin_round","mainloop","CHANGEPOINT","CHANGEPOINT","0.8599999999999999867","5","2","18.7749999999999985789","0","1","0","0","225.735529574038366718","0","243.0213249201300413915","207.8696984731564043614","721","1","3","8","4","0","45683","89579","86571","87306","88810","Arc6.png","","208.8696984731564043614","206.8696984731564043614","6"
"6.4.2","Cannonball Task","1","2021-08-16","21:26:09","begin_round","placeshield_mouse","CHANGEPOINT","CHANGEPOINT","0.8599999999999999867","5","2","18.7749999999999985789","0","1","0","0","225.735529574038366718","0","243.0213249201300413915","214.4052342876628642898","652","1","3","8","4","0","45683","89579","89630","87306","88810","Arc6.png","","215.4052342876628642898","213.4052342876628642898","6"
"6.4.2","Cannonball Task","1","2021-08-16","21:26:09","begin_round","revealshield","CHANGEPOINT","CHANGEPOINT","0.8599999999999999867","5","2","18.7749999999999985789","0","1","0","0","225.735529574038366718","0","243.0213249201300413915","214.4052342876628642898","652","1","3","8","4","0","45683","89579","89630","90287","88810","Arc24.png","","224.4052342876628642898","204.4052342876628642898","6"
"6.4.2","Cannonball Task","1","2021-08-16","21:26:09","begin_round","cannon_outcome","CHANGEPOINT","CHANGEPOINT","0.8599999999999999867","5","2","18.7749999999999985789","0","1","0","0","225.735529574038366718","0","243.0213249201300413915","214.4052342876628642898","652","1","3","9","4","0","45683","89579","89630","90287","91790","Arc24.png","","224.4052342876628642898","204.4052342876628642898","6"
"6.4.2","Cannonball Task","1","2021-08-16","21:26:09","begin_round","Reminder","CHANGEPOINT","CHANGEPOINT","0.8599999999999999867","5","2","18.7749999999999985789","0","1","0","0","225.735529574038366718","0","243.0213249201300413915","214.4052342876628642898","652","1","3","9","4","0","45683","89579","89630","90287","91790","Arc24.png","","224.4052342876628642898","204.4052342876628642898","6"
"6.4.2","Cannonball Task","1","2021-08-16","21:26:09","begin_round","mainloop","CHANGEPOINT","CHANGEPOINT","0.8599999999999999867","5","2","18.7749999999999985789","0","1","0","0","225.735529574038366718","0","202.4686641088479461814","214.4052342876628642898","652","1","3","9","4","0","45683","92572","89630","90287","91790","Arc24.png","","224.4052342876628642898","204.4052342876628642898","6"
"6.4.2","Cannonball Task","1","2021-08-16","21:26:09","begin_round","placeshield_mouse","CHANGEPOINT","CHANGEPOINT","0.8599999999999999867","5","2","18.7749999999999985789","0","1","0","0","225.735529574038366718","0","202.4686641088479461814","227.7449558938381528606","654","1","3","9","4","0","45683","92572","92623","90287","91790","Arc24.png","","237.7449558938381528606","217.7449558938381528606","6"
"6.4.2","Cannonball Task","1","2021-08-16","21:26:09","begin_round","revealshield","CHANGEPOINT","CHANGEPOINT","0.8599999999999999867","5","2","18.7749999999999985789","0","1","0","0","225.735529574038366718","0","202.4686641088479461814","227.7449558938381528606","654","1","3","9","4","0","45683","92572","92623","93291","91790","Arc14.png","","232.7449558938381528606","222.7449558938381528606","6"
"6.4.2","Cannonball Task","1","2021-08-16","21:26:09","begin_round","cannon_outcome","CHANGEPOINT","CHANGEPOINT","0.8599999999999999867","5","2","18.7749999999999985789","0","1","0","0","225.735529574038366718","0","202.4686641088479461814","227.7449558938381528606","654","1","3","10","4","0","45683","92572","92623","93291","94794","Arc14.png","","232.7449558938381528606","222.7449558938381528606","6"
"6.4.2","Cannonball Task","1","2021-08-16","21:26:09","begin_round","Reminder","CHANGEPOINT","CHANGEPOINT","0.8599999999999999867","5","2","18.7749999999999985789","0","1","0","0","225.735529574038366718","0","202.4686641088479461814","227.7449558938381528606","654","1","3","10","4","0","45683","92572","92623","93291","94794","Arc14.png","","232.7449558938381528606","222.7449558938381528606","6"
"6.4.2","Cannonball Task","1","2021-08-16","21:26:09","begin_round","mainloop","CHANGEPOINT","CHANGEPOINT","0.8599999999999999867","5","2","18.7749999999999985789","0","1","0","0","225.735529574038366718","0","204.3671813983398806158","227.7449558938381528606","654","1","3","10","4","0","45683","95598","92623","93291","94794","Arc14.png","","232.7449558938381528606","222.7449558938381528606","6"
"6.4.2","Cannonball Task","1","2021-08-16","21:26:09","begin_round","placeshield_mouse","CHANGEPOINT","CHANGEPOINT","0.8599999999999999867","5","2","18.7749999999999985789","0","1","0","0","225.735529574038366718","0","204.3671813983398806158","211.5347919051882854546","866","1","3","10","4","0","45683","95598","95649","93291","94794","Arc14.png","","216.5347919051882854546","206.5347919051882854546","6"
"6.4.2","Cannonball Task","1","2021-08-16","21:26:09","begin_round","revealshield","CHANGEPOINT","CHANGEPOINT","0.8599999999999999867","5","2","18.7749999999999985789","0","1","0","0","225.735529574038366718","0","204.3671813983398806158","211.5347919051882854546","866","1","3","10","4","0","45683","95598","95649","96520","94794","Arc54.png","","236.5347919051882854546","186.5347919051882854546","6"
"6.4.2","Cannonball Task","1","2021-08-16","21:26:09","begin_round","cannon_outcome","CHANGEPOINT","CHANGEPOINT","0.8599999999999999867","5","2","18.7749999999999985789","0","1","0","1","225.735529574038366718","0","204.3671813983398806158","211.5347919051882854546","866","1","4","10","4","0","45683","95598","95649","96520","98023","Arc54.png","","236.5347919051882854546","186.5347919051882854546","5"
"6.4.2","Cannonball Task","1","2021-08-16","21:26:09","MainBlock","Phase_starts","CHANGEPOINT","CHANGEPOINT","0.8599999999999999867","6","2","18.7749999999999985789","1","0","0","1","68.3382738168207595209","0","204.3671813983398806158","211.5347919051882854546","866","2","0","0","6","0","45683","95598","95649","96520","98023","Arc54.png","","236.5347919051882854546","186.5347919051882854546","5"
"6.4.2","Cannonball Task","1","2021-08-16","21:26:09","MainBlock","mainloop","CHANGEPOINT","CHANGEPOINT","0.8599999999999999867","6","2","18.7749999999999985789","1","1","1","1","110.1398549112816880324","0","125.6871388658937291893","211.5347919051882854546","866","2","0","0","6","0","45683","100087","95649","96520","98023","Arc54.png","","236.5347919051882854546","186.5347919051882854546","5"
"6.4.2","Cannonball Task","1","2021-08-16","21:26:09","MainBlock","placeshield_mouse","CHANGEPOINT","CHANGEPOINT","0.8599999999999999867","6","2","18.7749999999999985789","1","1","1","1","110.1398549112816880324","0","125.6871388658937291893","2.7657618342495031705","1539","2","0","0","6","0","45683","100087","100138","96520","98023","Arc54.png","","27.7657618342495027264","-22.2342381657504972736","5"
"6.4.2","Cannonball Task","1","2021-08-16","21:26:09","MainBlock","revealshield","CHANGEPOINT","CHANGEPOINT","0.8599999999999999867","6","2","18.7749999999999985789","1","1","1","1","110.1398549112816880324","0","125.6871388658937291893","2.7657618342495031705","1539","2","0","0","6","0","45683","100087","100138","101695","98023","Arc60.png","","30.7657618342495027264","-25.2342381657504972736","5"
"6.4.2","Cannonball Task","1","2021-08-16","21:26:09","MainBlock","cannon_outcome","CHANGEPOINT","CHANGEPOINT","0.8599999999999999867","6","2","18.7749999999999985789","1","1","1","1","110.1398549112816880324","0","125.6871388658937291893","2.7657618342495031705","1539","2","0","0","6","0","45683","100087","100138","101695","103198","Arc60.png","","30.7657618342495027264","-25.2342381657504972736","5"
"6.4.2","Cannonball Task","1","2021-08-16","21:26:09","MainBlock","mainloop","CHANGEPOINT","CHANGEPOINT","0.8599999999999999867","6","2","18.7749999999999985789","1","2","0","1","110.1398549112816880324","0","104.3969102894863283382","2.7657618342495031705","1539","2","0","0","6","0","45683","103506","100138","101695","103198","Arc60.png","","30.7657618342495027264","-25.2342381657504972736","5"
"6.4.2","Cannonball Task","1","2021-08-16","21:26:09","MainBlock","placeshield_mouse","CHANGEPOINT","CHANGEPOINT","0.8599999999999999867","6","2","18.7749999999999985789","1","2","0","1","110.1398549112816880324","0","104.3969102894863283382","126.544972322822559363","900","2","0","0","6","0","45683","103506","103557","101695","103198","Arc60.png","","154.544972322822559363","98.544972322822559363","5"
"6.4.2","Cannonball Task","1","2021-08-16","21:26:09","MainBlock","revealshield","CHANGEPOINT","CHANGEPOINT","0.8599999999999999867","6","2","18.7749999999999985789","1","2","0","1","110.1398549112816880324","0","104.3969102894863283382","126.544972322822559363","900","2","0","0","6","0","45683","103506","103557","104473","103198","Arc44.png","","146.544972322822559363","106.544972322822559363","5"
"6.4.2","Cannonball Task","1","2021-08-16","21:26:09","MainBlock","cannon_outcome","CHANGEPOINT","CHANGEPOINT","0.8599999999999999867","6","2","18.7749999999999985789","1","2","0","0","110.1398549112816880324","0","104.3969102894863283382","126.544972322822559363","900","2","0","1","6","0","45683","103506","103557","104473","105977","Arc44.png","","146.544972322822559363","106.544972322822559363","6"
"6.4.2","Cannonball Task","1","2021-08-16","21:26:09","MainBlock","mainloop","CHANGEPOINT","CHANGEPOINT","0.8599999999999999867","6","2","18.7749999999999985789","1","3","0","0","110.1398549112816880324","0","118.2772976343494519824","126.544972322822559363","900","2","0","1","6","0","45683","106291","103557","104473","105977","Arc44.png","","146.544972322822559363","106.544972322822559363","6"
"6.4.2","Cannonball Task","1","2021-08-16","21:26:09","MainBlock","placeshield_mouse","CHANGEPOINT","CHANGEPOINT","0.8599999999999999867","6","2","18.7749999999999985789","1","3","0","0","110.1398549112816880324","0","118.2772976343494519824","100.0244867959466290586","591","2","0","1","6","0","45683","106291","106342","104473","105977","Arc44.png","","120.0244867959466290586","80.0244867959466290586","6"
"6.4.2","Cannonball Task","1","2021-08-16","21:26:09","MainBlock","revealshield","CHANGEPOINT","CHANGEPOINT","0.8599999999999999867","6","2","18.7749999999999985789","1","3","0","0","110.1398549112816880324","0","118.2772976343494519824","100.0244867959466290586","591","2","0","1","6","0","45683","106291","106342","106948","105977","Arc30.png","","113.0244867959466290586","87.0244867959466290586","6"
"6.4.2","Cannonball Task","1","2021-08-16","21:26:09","MainBlock","cannon_outcome","CHANGEPOINT","CHANGEPOINT","0.8599999999999999867","6","2","18.7749999999999985789","1","3","0","0","110.1398549112816880324","0","118.2772976343494519824","100.0244867959466290586","591","2","0","2","6","0","45683","106291","106342","106948","108452","Arc30.png","","113.0244867959466290586","87.0244867959466290586","6"
"6.4.2","Cannonball Task","1","2021-08-16","21:26:09","MainBlock","Howyoudid","CHANGEPOINT","CHANGEPOINT","0.8599999999999999867","6","2","18.7749999999999985789","1","3","0","0","52.3350694431772183179","56.9386813316273077135","118.2772976343494519824","100.0244867959466290586","591","0","0","0","6","0","45683","106291","106342","106948","108452","Arc30.png","","113.0244867959466290586","87.0244867959466290586","6"
"6.4.2","Cannonball Task","1","2021-08-16","21:26:09","MainBlock","Phase_starts","CHANGEPOINT","CHANGEPOINT","0.8599999999999999867","6","2","18.7749999999999985789","2","0","0","0","52.3350694431772183179","56.9386813316273077135","118.2772976343494519824","100.0244867959466290586","591","0","0","0","6","0","45683","106291","106342","106948","108452","Arc30.png","","113.0244867959466290586","87.0244867959466290586","6"
"6.4.2","Cannonball Task","1","2021-08-16","21:26:09","MainBlock","mainloop","CHANGEPOINT","CHANGEPOINT","0.8599999999999999867","6","2","18.7749999999999985789","2","1","0","0","52.3350694431772183179","56.9386813316273077135","34.1994964200875557481","100.0244867959466290586","591","0","0","0","6","0","45683","110672","106342","106948","108452","Arc30.png","","113.0244867959466290586","87.0244867959466290586","6"
"6.4.2","Cannonball Task","1","2021-08-16","21:26:09","MainBlock","placeshield_mouse","CHANGEPOINT","CHANGEPOINT","0.8599999999999999867","6","2","18.7749999999999985789","2","1","0","0","52.3350694431772183179","56.9386813316273077135","34.1994964200875557481","116.8163468442869401542","740","0","0","0","6","0","45683","110672","110724","106948","108452","Arc30.png","","129.8163468442869543651","103.8163468442869401542","6"
"6.4.2","Cannonball Task","1","2021-08-16","21:26:09","MainBlock","revealshield","CHANGEPOINT","CHANGEPOINT","0.8599999999999999867","6","2","18.7749999999999985789","2","1","0","0","52.3350694431772183179","56.9386813316273077135","34.1994964200875557481","116.8163468442869401542","740","0","0","0","6","0","45683","110672","110724","111482","108452","Arc18.png","","123.8163468442869401542","109.8163468442869401542","6"
"6.4.2","Cannonball Task","1","2021-08-16","21:26:09","MainBlock","cannon_outcome","CHANGEPOINT","CHANGEPOINT","0.8599999999999999867","6","2","18.7749999999999985789","2","1","0","0","52.3350694431772183179","56.9386813316273077135","34.1994964200875557481","116.8163468442869401542","740","0","0","1","6","0","45683","110672","110724","111482","112983","Arc18.png","","123.8163468442869401542","109.8163468442869401542","6"
"6.4.2","Cannonball Task","1","2021-08-16","21:26:09","MainBlock","mainloop","CHANGEPOINT","CHANGEPOINT","0.8599999999999999867","6","2","18.7749999999999985789","2","2","0","0","52.3350694431772183179","56.9386813316273077135","67.2784555869718587928","116.8163468442869401542","740","0","0","1","6","0","45683","113292","110724","111482","112983","Arc18.png","","123.8163468442869401542","109.8163468442869401542","6"
"6.4.2","Cannonball Task","1","2021-08-16","21:26:09","MainBlock","placeshield_mouse","CHANGEPOINT","CHANGEPOINT","0.8599999999999999867","6","2","18.7749999999999985789","2","2","0","0","52.3350694431772183179","56.9386813316273077135","67.2784555869718587928","33.8453402610717120069","328","0","0","1","6","0","45683","113292","113343","111482","112983","Arc18.png","","40.8453402610717120069","26.8453402610717120069","6"
"6.4.2","Cannonball Task","1","2021-08-16","21:26:09","MainBlock","revealshield","CHANGEPOINT","CHANGEPOINT","0.8599999999999999867","6","2","18.7749999999999985789","2","2","0","0","52.3350694431772183179","56.9386813316273077135","67.2784555869718587928","33.8453402610717120069","328","0","0","1","6","0","45683","113292","113343","113687","112983","Arc38.png","","50.8453402610717120069","16.8453402610717120069","6"
"6.4.2","Cannonball Task","1","2021-08-16","21:26:09","MainBlock","cannon_outcome","CHANGEPOINT","CHANGEPOINT","0.8599999999999999867","6","2","18.7749999999999985789","2","2","0","0","52.3350694431772183179","56.9386813316273077135","67.2784555869718587928","33.8453402610717120069","328","0","0","2","6","0","45683","113292","113343","113687","115190","Arc38.png","","50.8453402610717120069","16.8453402610717120069","6"
"6.4.2","Cannonball Task","1","2021-08-16","21:26:09","MainBlock","mainloop","CHANGEPOINT","CHANGEPOINT","0.8599999999999999867","6","2","18.7749999999999985789","2","3","0","0","52.3350694431772183179","56.9386813316273077135","41.977623324218683365","33.8453402610717120069","328","0","0","2","6","0","45683","115493","113343","113687","115190","Arc38.png","","50.8453402610717120069","16.8453402610717120069","6"
"6.4.2","Cannonball Task","1","2021-08-16","21:26:09","MainBlock","placeshield_mouse","CHANGEPOINT","CHANGEPOINT","0.8599999999999999867","6","2","18.7749999999999985789","2","3","0","0","52.3350694431772183179","56.9386813316273077135","41.977623324218683365","61.1392426511932072231","332","0","0","2","6","0","45683","115493","115545","113687","115190","Arc38.png","","78.1392426511932001176","44.1392426511932072231","6"
"6.4.2","Cannonball Task","1","2021-08-16","21:26:09","MainBlock","revealshield","CHANGEPOINT","CHANGEPOINT","0.8599999999999999867","6","2","18.7749999999999985789","2","3","0","0","52.3350694431772183179","56.9386813316273077135","41.977623324218683365","61.1392426511932072231","332","0","0","2","6","0","45683","115493","115545","115892","115190","Arc42.png","","80.1392426511932001176","42.1392426511932072231","6"
"6.4.2","Cannonball Task","1","2021-08-16","21:26:09","MainBlock","cannon_outcome","CHANGEPOINT","CHANGEPOINT","0.8599999999999999867","6","2","18.7749999999999985789","2","3","0","0","52.3350694431772183179","56.9386813316273077135","41.977623324218683365","61.1392426511932072231","332","0","0","3","6","0","45683","115493","115545","115892","117394","Arc42.png","","80.1392426511932001176","42.1392426511932072231","6"
"6.4.2","Cannonball Task","1","2021-08-16","21:26:09","MainBlock","Howyoudid","CHANGEPOINT","CHANGEPOINT","0.8599999999999999867","6","2","18.7749999999999985789","2","3","0","0","38.6378799375700481278","29.0281788321585665358","41.977623324218683365","61.1392426511932072231","332","0","0","0","6","0","45683","115493","115545","115892","117394","Arc42.png","","80.1392426511932001176","42.1392426511932072231","6"
"6.4.2","Cannonball Task","1","2021-08-16","21:26:09","MainBlock","Phase_starts","CHANGEPOINT","CHANGEPOINT","0.8599999999999999867","6","2","18.7749999999999985789","3","0","0","0","38.6378799375700481278","29.0281788321585665358","41.977623324218683365","61.1392426511932072231","332","0","0","0","6","0","45683","115493","115545","115892","117394","Arc42.png","","80.1392426511932001176","42.1392426511932072231","6"
"6.4.2","Cannonball Task","1","2021-08-16","21:26:09","MainBlock","mainloop","CHANGEPOINT","CHANGEPOINT","0.8599999999999999867","6","2","18.7749999999999985789","3","1","0","0","38.6378799375700481278","29.0281788321585665358","45.3015074887559308081","61.1392426511932072231","332","0","0","0","6","0","45683","119717","115545","115892","117394","Arc42.png","","80.1392426511932001176","42.1392426511932072231","6"
"6.4.2","Cannonball Task","1","2021-08-16","21:26:09","MainBlock","placeshield_mouse","CHANGEPOINT","CHANGEPOINT","0.8599999999999999867","6","2","18.7749999999999985789","3","1","0","0","38.6378799375700481278","29.0281788321585665358","45.3015074887559308081","61.5570713756366458824","704","0","0","0","6","0","45683","119717","119769","115892","117394","Arc42.png","","80.557071375636638777","42.5570713756366458824","6"
"6.4.2","Cannonball Task","1","2021-08-16","21:26:09","MainBlock","revealshield","CHANGEPOINT","CHANGEPOINT","0.8599999999999999867","6","2","18.7749999999999985789","3","1","0","0","38.6378799375700481278","29.0281788321585665358","45.3015074887559308081","61.5570713756366458824","704","0","0","0","6","0","45683","119717","119769","120482","117394","Arc8.png","","63.5570713756366458824","59.5570713756366458824","6"
"6.4.2","Cannonball Task","1","2021-08-16","21:26:09","MainBlock","cannon_outcome","CHANGEPOINT","CHANGEPOINT","0.8599999999999999867","6","2","18.7749999999999985789","3","1","0","0","38.6378799375700481278","29.0281788321585665358","45.3015074887559308081","61.5570713756366458824","704","0","0","1","6","0","45683","119717","119769","120482","121985","Arc8.png","","63.5570713756366458824","59.5570713756366458824","6"
"6.4.2","Cannonball Task","1","2021-08-16","21:26:09","MainBlock","mainloop","CHANGEPOINT","CHANGEPOINT","0.8599999999999999867","6","2","18.7749999999999985789","3","2","0","0","38.6378799375700481278","29.0281788321585665358","2.6854376452507722206","61.5570713756366458824","704","0","0","1","6","0","45683","122295","119769","120482","121985","Arc8.png","","63.5570713756366458824","59.5570713756366458824","6"
"6.4.2","Cannonball Task","1","2021-08-16","21:26:09","MainBlock","placeshield_mouse","CHANGEPOINT","CHANGEPOINT","0.8599999999999999867","6","2","18.7749999999999985789","3","2","0","0","38.6378799375700481278","29.0281788321585665358","2.6854376452507722206","43.6765705387452030095","967","0","0","1","6","0","45683","122295","122346","120482","121985","Arc8.png","","45.6765705387452030095","41.6765705387452030095","6"
"6.4.2","Cannonball Task","1","2021-08-16","21:26:09","MainBlock","revealshield","CHANGEPOINT","CHANGEPOINT","0.8599999999999999867","6","2","18.7749999999999985789","3","2","0","0","38.6378799375700481278","29.0281788321585665358","2.6854376452507722206","43.6765705387452030095","967","0","0","1","6","0","45683","122295","122346","123328","121985","Arc34.png","","58.6765705387452030095","28.6765705387452030095","6"
"6.4.2","Cannonball Task","1","2021-08-16","21:26:09","MainBlock","cannon_outcome","CHANGEPOINT","CHANGEPOINT","0.8599999999999999867","6","2","18.7749999999999985789","3","2","0","0","38.6378799375700481278","29.0281788321585665358","2.6854376452507722206","43.6765705387452030095","967","0","0","2","6","0","45683","122295","122346","123328","124829","Arc34.png","","58.6765705387452030095","28.6765705387452030095","6"
"6.4.2","Cannonball Task","1","2021-08-16","21:26:09","MainBlock","mainloop","CHANGEPOINT","CHANGEPOINT","0.8599999999999999867","6","2","18.7749999999999985789","3","3","1","0","96.0550227519252786124","29.0281788321585665358","88.8145727257753776485","43.6765705387452030095","967","0","0","2","6","0","45683","125145","122346","123328","124829","Arc34.png","","58.6765705387452030095","28.6765705387452030095","6"
"6.4.2","Cannonball Task","1","2021-08-16","21:26:09","MainBlock","placeshield_mouse","CHANGEPOINT","CHANGEPOINT","0.8599999999999999867","6","2","18.7749999999999985789","3","3","1","0","96.0550227519252786124","29.0281788321585665358","88.8145727257753776485","2.5510950890009365111","376","0","0","2","6","0","45683","125145","125197","123328","124829","Arc34.png","","17.5510950890009382874","-12.4489049109990634889","6"
"6.4.2","Cannonball Task","1","2021-08-16","21:26:09","MainBlock","revealshield","CHANGEPOINT","CHANGEPOINT","0.8599999999999999867","6","2","18.7749999999999985789","3","3","1","0","96.0550227519252786124","29.0281788321585665358","88.8145727257753776485","2.5510950890009365111","376","0","0","2","6","0","45683","125145","125197","125589","124829","Arc14.png","","7.5510950890009365111","-2.4489049109990634889","6"
"6.4.2","Cannonball Task","1","2021-08-16","21:26:09","MainBlock","cannon_outcome","CHANGEPOINT","CHANGEPOINT","0.8599999999999999867","6","2","18.7749999999999985789","3","3","1","0","96.0550227519252786124","29.0281788321585665358","88.8145727257753776485","2.5510950890009365111","376","0","0","2","6","0","45683","125145","125197","125589","127092","Arc14.png","","7.5510950890009365111","-2.4489049109990634889","6"
"6.4.2","Cannonball Task","1","2021-08-16","21:26:09","MainBlock","Howyoudid","CHANGEPOINT","CHANGEPOINT","0.8599999999999999867","6","2","18.7749999999999985789","3","3","1","0","8.2214268595495791914","22.1990425365719374895","88.8145727257753776485","2.5510950890009365111","376","0","0","0","6","0","45683","125145","125197","125589","127092","Arc14.png","","7.5510950890009365111","-2.4489049109990634889","6"
"6.4.2","Cannonball Task","1","2021-08-16","21:26:09","MainBlock","Phase_starts","CHANGEPOINT","CHANGEPOINT","0.8599999999999999867","6","2","18.7749999999999985789","4","0","1","0","8.2214268595495791914","22.1990425365719374895","88.8145727257753776485","2.5510950890009365111","376","0","0","0","6","0","45683","125145","125197","125589","127092","Arc14.png","","7.5510950890009365111","-2.4489049109990634889","6"
"6.4.2","Cannonball Task","1","2021-08-16","21:26:09","MainBlock","mainloop","CHANGEPOINT","CHANGEPOINT","0.8599999999999999867","6","2","18.7749999999999985789","4","1","1","0","262.620243854499506142","22.1990425365719374895","238.3540967739419329519","2.5510950890009365111","376","0","0","0","6","0","45683","129133","125197","125589","127092","Arc14.png","","7.5510950890009365111","-2.4489049109990634889","6"
"6.4.2","Cannonball Task","1","2021-08-16","21:26:09","MainBlock","placeshield_mouse","CHANGEPOINT","CHANGEPOINT","0.8599999999999999867","6","2","18.7749999999999985789","4","1","1","0","262.620243854499506142","22.1990425365719374895","238.3540967739419329519","93.9068163841034220241","655","0","0","0","6","0","45683","129133","129185","125589","127092","Arc14.png","","98.9068163841034220241","88.9068163841034220241","6"
"6.4.2","Cannonball Task","1","2021-08-16","21:26:09","MainBlock","revealshield","CHANGEPOINT","CHANGEPOINT","0.8599999999999999867","6","2","18.7749999999999985789","4","1","1","0","262.620243854499506142","22.1990425365719374895","238.3540967739419329519","93.9068163841034220241","655","0","0","0","6","0","45683","129133","129185","129853","127092","Arc18.png","","100.9068163841034220241","86.9068163841034220241","6"
"6.4.2","Cannonball Task","1","2021-08-16","21:26:09","MainBlock","cannon_outcome","CHANGEPOINT","CHANGEPOINT","0.8599999999999999867","6","2","18.7749999999999985789","4","1","1","0","262.620243854499506142","22.1990425365719374895","238.3540967739419329519","93.9068163841034220241","655","0","0","1","6","0","45683","129133","129185","129853","131354","Arc18.png","","100.9068163841034220241","86.9068163841034220241","6"
"6.4.2","Cannonball Task","1","2021-08-16","21:26:09","MainBlock","mainloop","CHANGEPOINT","CHANGEPOINT","0.8599999999999999867","6","2","18.7749999999999985789","4","2","0","0","262.620243854499506142","22.1990425365719374895","262.3779698608213948319","93.9068163841034220241","655","0","0","1","6","0","45683","131664","129185","129853","131354","Arc18.png","","100.9068163841034220241","86.9068163841034220241","6"
"6.4.2","Cannonball Task","1","2021-08-16","21:26:09","MainBlock","placeshield_mouse","CHANGEPOINT","CHANGEPOINT","0.8599999999999999867","6","2","18.7749999999999985789","4","2","0","0","262.620243854499506142","22.1990425365719374895","262.3779698608213948319","225.848764271553591243","585","0","0","1","6","0","45683","131664","131716","129853","131354","Arc18.png","","232.848764271553591243","218.848764271553591243","6"
"6.4.2","Cannonball Task","1","2021-08-16","21:26:09","MainBlock","revealshield","CHANGEPOINT","CHANGEPOINT","0.8599999999999999867","6","2","18.7749999999999985789","4","2","0","0","262.620243854499506142","22.1990425365719374895","262.3779698608213948319","225.848764271553591243","585","0","0","1","6","0","45683","131664","131716","132316","131354","Arc20.png","","233.848764271553591243","217.848764271553591243","6"
"6.4.2","Cannonball Task","1","2021-08-16","21:26:09","MainBlock","cannon_outcome","CHANGEPOINT","CHANGEPOINT","0.8599999999999999867","6","2","18.7749999999999985789","4","2","0","0","262.620243854499506142","22.1990425365719374895","262.3779698608213948319","225.848764271553591243","585","0","0","2","6","0","45683","131664","131716","132316","133818","Arc20.png","","233.848764271553591243","217.848764271553591243","6"
"6.4.2","Cannonball Task","1","2021-08-16","21:26:09","MainBlock","mainloop","CHANGEPOINT","CHANGEPOINT","0.8599999999999999867","6","2","18.7749999999999985789","4","3","0","0","262.620243854499506142","22.1990425365719374895","233.1272342925546752213","225.848764271553591243","585","0","0","2","6","0","45683","134131","131716","132316","133818","Arc20.png","","233.848764271553591243","217.848764271553591243","6"
"6.4.2","Cannonball Task","1","2021-08-16","21:26:09","MainBlock","placeshield_mouse","CHANGEPOINT","CHANGEPOINT","0.8599999999999999867","6","2","18.7749999999999985789","4","3","0","0","262.620243854499506142","22.1990425365719374895","233.1272342925546752213","266.1859251657097047428","447","0","0","2","6","0","45683","134131","134183","132316","133818","Arc20.png","","274.1859251657097047428","258.1859251657097047428","6"
"6.4.2","Cannonball Task","1","2021-08-16","21:26:09","MainBlock","revealshield","CHANGEPOINT","CHANGEPOINT","0.8599999999999999867","6","2","18.7749999999999985789","4","3","0","0","262.620243854499506142","22.1990425365719374895","233.1272342925546752213","266.1859251657097047428","447","0","0","2","6","0","45683","134131","134183","134645","133818","Arc54.png","","291.1859251657097047428","241.1859251657097047428","6"
"6.4.2","Cannonball Task","1","2021-08-16","21:26:09","MainBlock","cannon_outcome","CHANGEPOINT","CHANGEPOINT","0.8599999999999999867","6","2","18.7749999999999985789","4","3","0","0","262.620243854499506142","22.1990425365719374895","233.1272342925546752213","266.1859251657097047428","447","0","0","3","6","0","45683","134131","134183","134645","136148","Arc54.png","","291.1859251657097047428","241.1859251657097047428","6"
"6.4.2","Cannonball Task","1","2021-08-16","21:26:09","MainBlock","Howyoudid","CHANGEPOINT","CHANGEPOINT","0.8599999999999999867","6","2","18.7749999999999985789","4","3","0","0","315.6867875707537791641","347.6038023517531883044","233.1272342925546752213","266.1859251657097047428","447","0","0","0","6","0","45683","134131","134183","134645","136148","Arc54.png","","291.1859251657097047428","241.1859251657097047428","6"
"6.4.2","Cannonball Task","1","2021-08-16","21:26:09","begin_round","Phase_starts","ODDBALL","ODDBALL","0.8599999999999999867","4","2","18.7749999999999985789","0","0","0","0","315.6867875707537791641","347.6038023517531883044","233.1272342925546752213","266.1859251657097047428","447","0","0","0","6","0","45683","134131","134183","134645","136148","Arc54.png","","291.1859251657097047428","241.1859251657097047428","6"
"6.4.2","Cannonball Task","1","2021-08-16","21:26:09","begin_round","mainloop","ODDBALL","ODDBALL","0.8599999999999999867","4","2","18.7749999999999985789","0","0","0","0","354.0346177357896522153","347.6038023517531883044","334.0257190355209218069","266.1859251657097047428","447","0","0","0","6","0","138605","142520","134183","134645","136148","Arc54.png","","291.1859251657097047428","241.1859251657097047428","6"
"6.4.2","Cannonball Task","1","2021-08-16","21:26:09","begin_round","placeshield_mouse","ODDBALL","ODDBALL","0.8599999999999999867","4","1","18.7749999999999985789","0","0","0","0","354.0346177357896522153","347.6038023517531883044","334.0257190355209218069","355.2594894261088143139","1106","0","0","0","6","0","138605","142520","142572","134645","136148","Arc54.png","","380.2594894261088143139","330.2594894261088143139","6"
"6.4.2","Cannonball Task","1","2021-08-16","21:26:09","begin_round","revealshield","ODDBALL","ODDBALL","0.8599999999999999867","4","1","18.7749999999999985789","0","0","0","0","354.0346177357896522153","347.6038023517531883044","334.0257190355209218069","355.2594894261088143139","1106","0","0","0","6","0","138605","142520","142572","143690","136148","Arc60.png","","383.2594894261088143139","327.2594894261088143139","6"
"6.4.2","Cannonball Task","1","2021-08-16","21:26:09","begin_round","cannon_outcome","ODDBALL","ODDBALL","0.8599999999999999867","4","1","18.7749999999999985789","0","0","0","1","354.0346177357896522153","347.6038023517531883044","334.0257190355209218069","355.2594894261088143139","1106","0","1","0","6","0","138605","142520","142572","143690","145192","Arc60.png","","383.2594894261088143139","327.2594894261088143139","5"
"6.4.2","Cannonball Task","1","2021-08-16","21:26:09","begin_round","mainloop","ODDBALL","ODDBALL","0.8599999999999999867","4","1","18.7749999999999985789","0","0","0","1","358.7316144312085839374","347.6038023517531883044","353.6663059401663531389","355.2594894261088143139","1106","0","1","0","6","0","138605","145502","142572","143690","145192","Arc60.png","","383.2594894261088143139","327.2594894261088143139","5"
"6.4.2","Cannonball Task","1","2021-08-16","21:26:09","begin_round","placeshield_mouse","ODDBALL","ODDBALL","0.8599999999999999867","4","1","18.7749999999999985789","0","0","0","1","358.7316144312085839374","347.6038023517531883044","353.6663059401663531389","354.7528610983835051229","303","0","1","0","6","0","138605","145502","145553","143690","145192","Arc60.png","","382.7528610983835051229","326.7528610983835051229","5"
"6.4.2","Cannonball Task","1","2021-08-16","21:26:09","begin_round","revealshield","ODDBALL","ODDBALL","0.8599999999999999867","4","1","18.7749999999999985789","0","0","0","1","358.7316144312085839374","347.6038023517531883044","353.6663059401663531389","354.7528610983835051229","303","0","1","0","6","0","138605","145502","145553","145872","145192","Arc52.png","","378.7528610983835051229","330.7528610983835051229","5"
"6.4.2","Cannonball Task","1","2021-08-16","21:26:09","begin_round","cannon_outcome","ODDBALL","ODDBALL","0.8599999999999999867","4","1","18.7749999999999985789","0","0","0","1","358.7316144312085839374","347.6038023517531883044","353.6663059401663531389","354.7528610983835051229","303","0","2","0","6","0","138605","145502","145553","145872","147375","Arc52.png","","378.7528610983835051229","330.7528610983835051229","5"
"6.4.2","Cannonball Task","1","2021-08-16","21:26:09","begin_round","mainloop","ODDBALL","ODDBALL","0.8599999999999999867","4","1","18.7749999999999985789","0","0","0","1","355.2152473842699578199","347.6038023517531883044","330.0007314204345334474","354.7528610983835051229","303","0","2","0","6","0","138605","147686","145553","145872","147375","Arc52.png","","378.7528610983835051229","330.7528610983835051229","5"
"6.4.2","Cannonball Task","1","2021-08-16","21:26:09","begin_round","placeshield_mouse","ODDBALL","ODDBALL","0.8599999999999999867","4","1","18.7749999999999985789","0","0","0","1","355.2152473842699578199","347.6038023517531883044","330.0007314204345334474","354.7528610983835051229","370","0","2","0","6","0","138605","147686","147737","145872","147375","Arc52.png","","378.7528610983835051229","330.7528610983835051229","5"
"6.4.2","Cannonball Task","1","2021-08-16","21:26:09","begin_round","revealshield","ODDBALL","ODDBALL","0.8599999999999999867","4","1","18.7749999999999985789","0","0","0","1","355.2152473842699578199","347.6038023517531883044","330.0007314204345334474","354.7528610983835051229","370","0","2","0","6","0","138605","147686","147737","148122","147375","Arc48.png","","376.7528610983835051229","332.7528610983835051229","5"
"6.4.2","Cannonball Task","1","2021-08-16","21:26:09","begin_round","cannon_outcome","ODDBALL","ODDBALL","0.8599999999999999867","4","1","18.7749999999999985789","0","0","0","1","355.2152473842699578199","347.6038023517531883044","330.0007314204345334474","354.7528610983835051229","370","0","2","0","6","0","138605","147686","147737","148122","149626","Arc48.png","","376.7528610983835051229","332.7528610983835051229","5"
"6.4.2","Cannonball Task","1","2021-08-16","21:26:09","begin_round","mainloop","ODDBALL","ODDBALL","0.8599999999999999867","4","1","18.7749999999999985789","0","0","1","1","355.2152473842699578199","347.6038023517531883044","158.3700774606247705378","354.7528610983835051229","370","0","2","0","6","0","138605","149936","147737","148122","149626","Arc48.png","","376.7528610983835051229","332.7528610983835051229","5"
"6.4.2","Cannonball Task","1","2021-08-16","21:26:09","begin_round","placeshield_mouse","ODDBALL","ODDBALL","0.8599999999999999867","4","1","18.7749999999999985789","0","0","1","1","355.2152473842699578199","347.6038023517531883044","158.3700774606247705378","354.7528610983835051229","391","0","2","0","6","0","138605","149936","149987","148122","149626","Arc48.png","","376.7528610983835051229","332.7528610983835051229","5"
"6.4.2","Cannonball Task","1","2021-08-16","21:26:09","begin_round","revealshield","ODDBALL","ODDBALL","0.8599999999999999867","4","1","18.7749999999999985789","0","0","1","1","355.2152473842699578199","347.6038023517531883044","158.3700774606247705378","354.7528610983835051229","391","0","2","0","6","0","138605","149936","149987","150395","149626","Arc44.png","","374.7528610983835051229","334.7528610983835051229","5"
"6.4.2","Cannonball Task","1","2021-08-16","21:26:09","begin_round","cannon_outcome","ODDBALL","ODDBALL","0.8599999999999999867","4","1","18.7749999999999985789","0","0","1","1","355.2152473842699578199","347.6038023517531883044","158.3700774606247705378","354.7528610983835051229","391","0","2","0","6","0","138605","149936","149987","150395","151897","Arc44.png","","374.7528610983835051229","334.7528610983835051229","5"
"6.4.2","Cannonball Task","1","2021-08-16","21:26:09","begin_round","EndPracticePhase","ODDBALL","ODDBALL","0.8599999999999999867","5","1","18.7749999999999985789","0","0","1","1","355.2152473842699578199","347.6038023517531883044","158.3700774606247705378","354.7528610983835051229","391","1","2","0","7","0","138605","149936","149987","150395","151897","Arc44.png","","374.7528610983835051229","334.7528610983835051229","5"
"6.4.2","Cannonball Task","1","2021-08-16","21:26:09","begin_round","PracticeBlock_CannonNotVisible","ODDBALL","ODDBALL","0.8599999999999999867","5","2","18.7749999999999985789","0","1","1","1","49.1974535233335217299","347.6038023517531883044","158.3700774606247705378","354.7528610983835051229","391","1","2","0","7","0","138605","149936","149987","150395","151897","Arc44.png","","374.7528610983835051229","334.7528610983835051229","5"
"6.4.2","Cannonball Task","1","2021-08-16","21:26:09","begin_round","mainloop","ODDBALL","ODDBALL","0.8599999999999999867","5","2","18.7749999999999985789","0","1","0","1","45.5255934981386687355","347.6038023517531883044","51.3186559219032432111","354.7528610983835051229","391","1","2","0","7","0","138605","155963","149987","150395","151897","Arc44.png","","374.7528610983835051229","334.7528610983835051229","5"
"6.4.2","Cannonball Task","1","2021-08-16","21:26:09","begin_round","placeshield_mouse","ODDBALL","ODDBALL","0.8599999999999999867","5","2","18.7749999999999985789","0","1","0","1","45.5255934981386687355","347.6038023517531883044","51.3186559219032432111","167.2671898687908083048","1437","1","2","0","7","0","138605","155963","156015","150395","151897","Arc44.png","","187.2671898687908083048","147.2671898687908083048","5"
"6.4.2","Cannonball Task","1","2021-08-16","21:26:09","begin_round","revealshield","ODDBALL","ODDBALL","0.8599999999999999867","5","2","18.7749999999999985789","0","1","0","1","45.5255934981386687355","347.6038023517531883044","51.3186559219032432111","167.2671898687908083048","1437","1","2","0","7","0","138605","155963","156015","157459","151897","Arc30.png","","180.2671898687908083048","154.2671898687908083048","5"
"6.4.2","Cannonball Task","1","2021-08-16","21:26:09","begin_round","cannon_outcome","ODDBALL","ODDBALL","0.8599999999999999867","5","2","18.7749999999999985789","0","1","0","0","45.5255934981386687355","347.6038023517531883044","51.3186559219032432111","167.2671898687908083048","1437","1","2","1","7","0","138605","155963","156015","157459","158962","Arc30.png","","180.2671898687908083048","154.2671898687908083048","6"
"6.4.2","Cannonball Task","1","2021-08-16","21:26:09","begin_round","mainloop","ODDBALL","ODDBALL","0.8599999999999999867","5","2","18.7749999999999985789","0","1","0","0","47.4614054588458031958","347.6038023517531883044","28.7240393895105547983","167.2671898687908083048","1437","1","2","1","7","0","138605","159272","156015","157459","158962","Arc30.png","","180.2671898687908083048","154.2671898687908083048","6"
"6.4.2","Cannonball Task","1","2021-08-16","21:26:09","begin_round","placeshield_mouse","ODDBALL","ODDBALL","0.8599999999999999867","5","2","18.7749999999999985789","0","1","0","0","47.4614054588458031958","347.6038023517531883044","28.7240393895105547983","50.9206207140467981276","584","1","2","1","7","0","138605","159272","159323","157459","158962","Arc30.png","","63.9206207140467981276","37.9206207140467981276","6"
"6.4.2","Cannonball Task","1","2021-08-16","21:26:09","begin_round","revealshield","ODDBALL","ODDBALL","0.8599999999999999867","5","2","18.7749999999999985789","0","1","0","0","47.4614054588458031958","347.6038023517531883044","28.7240393895105547983","50.9206207140467981276","584","1","2","1","7","0","138605","159272","159323","159923","158962","Arc12.png","","54.9206207140467981276","46.9206207140467981276","6"
"6.4.2","Cannonball Task","1","2021-08-16","21:26:09","begin_round","cannon_outcome","ODDBALL","ODDBALL","0.8599999999999999867","5","2","18.7749999999999985789","0","1","0","0","47.4614054588458031958","347.6038023517531883044","28.7240393895105547983","50.9206207140467981276","584","1","2","2","7","0","138605","159272","159323","159923","161427","Arc12.png","","54.9206207140467981276","46.9206207140467981276","6"
"6.4.2","Cannonball Task","1","2021-08-16","21:26:09","begin_round","mainloop","ODDBALL","ODDBALL","0.8599999999999999867","5","2","18.7749999999999985789","0","1","0","0","48.288387789112881876","347.6038023517531883044","65.7413431124564766606","50.9206207140467981276","584","1","2","2","7","0","138605","161739","159323","159923","161427","Arc12.png","","54.9206207140467981276","46.9206207140467981276","6"
"6.4.2","Cannonball Task","1","2021-08-16","21:26:09","begin_round","placeshield_mouse","ODDBALL","ODDBALL","0.8599999999999999867","5","2","18.7749999999999985789","0","1","0","0","48.288387789112881876","347.6038023517531883044","65.7413431124564766606","34.8457334197997354863","412","1","2","2","7","0","138605","161739","161790","159923","161427","Arc12.png","","38.8457334197997354863","30.8457334197997354863","6"
"6.4.2","Cannonball Task","1","2021-08-16","21:26:09","begin_round","revealshield","ODDBALL","ODDBALL","0.8599999999999999867","5","2","18.7749999999999985789","0","1","0","0","48.288387789112881876","347.6038023517531883044","65.7413431124564766606","34.8457334197997354863","412","1","2","2","7","0","138605","161739","161790","162218","161427","Arc32.png","","48.8457334197997354863","20.8457334197997354863","6"
"6.4.2","Cannonball Task","1","2021-08-16","21:26:09","begin_round","cannon_outcome","ODDBALL","ODDBALL","0.8599999999999999867","5","2","18.7749999999999985789","0","1","0","0","48.288387789112881876","347.6038023517531883044","65.7413431124564766606","34.8457334197997354863","412","1","2","3","7","0","138605","161739","161790","162218","163720","Arc32.png","","48.8457334197997354863","20.8457334197997354863","6"
"6.4.2","Cannonball Task","1","2021-08-16","21:26:09","begin_round","Reminder","ODDBALL","ODDBALL","0.8599999999999999867","5","2","18.7749999999999985789","0","1","0","0","48.288387789112881876","347.6038023517531883044","65.7413431124564766606","34.8457334197997354863","412","1","2","3","7","0","138605","161739","161790","162218","163720","Arc32.png","","48.8457334197997354863","20.8457334197997354863","6"
"6.4.2","Cannonball Task","1","2021-08-16","21:26:09","begin_round","mainloop","ODDBALL","ODDBALL","0.8599999999999999867","5","2","18.7749999999999985789","0","1","0","0","50.7092120458124995253","347.6038023517531883044","41.529173931423862598","34.8457334197997354863","412","1","2","3","7","0","138605","164907","161790","162218","163720","Arc32.png","","48.8457334197997354863","20.8457334197997354863","6"
"6.4.2","Cannonball Task","1","2021-08-16","21:26:09","begin_round","placeshield_mouse","ODDBALL","ODDBALL","0.8599999999999999867","5","2","18.7749999999999985789","0","1","0","0","50.7092120458124995253","347.6038023517531883044","41.529173931423862598","61.7712238186304105625","743","1","2","3","7","0","138605","164907","164959","162218","163720","Arc32.png","","75.7712238186304034571","47.7712238186304105625","6"
"6.4.2","Cannonball Task","1","2021-08-16","21:26:09","begin_round","revealshield","ODDBALL","ODDBALL","0.8599999999999999867","5","2","18.7749999999999985789","0","1","0","0","50.7092120458124995253","347.6038023517531883044","41.529173931423862598","61.7712238186304105625","743","1","2","3","7","0","138605","164907","164959","165718","163720","Arc40.png","","79.7712238186304034571","43.7712238186304105625","6"
"6.4.2","Cannonball Task","1","2021-08-16","21:26:09","begin_round","cannon_outcome","ODDBALL","ODDBALL","0.8599999999999999867","5","2","18.7749999999999985789","0","1","0","0","50.7092120458124995253","347.6038023517531883044","41.529173931423862598","61.7712238186304105625","743","1","2","4","7","0","138605","164907","164959","165718","167221","Arc40.png","","79.7712238186304034571","43.7712238186304105625","6"
"6.4.2","Cannonball Task","1","2021-08-16","21:26:09","begin_round","Reminder","ODDBALL","ODDBALL","0.8599999999999999867","5","2","18.7749999999999985789","0","1","0","0","50.7092120458124995253","347.6038023517531883044","41.529173931423862598","61.7712238186304105625","743","1","2","4","7","0","138605","164907","164959","165718","167221","Arc40.png","","79.7712238186304034571","43.7712238186304105625","6"
"6.4.2","Cannonball Task","1","2021-08-16","21:26:09","begin_round","mainloop","ODDBALL","ODDBALL","0.8599999999999999867","5","2","18.7749999999999985789","0","1","0","0","48.6475255654087916923","347.6038023517531883044","60.8787029439611941939","61.7712238186304105625","743","1","2","4","7","0","138605","168395","164959","165718","167221","Arc40.png","","79.7712238186304034571","43.7712238186304105625","6"
"6.4.2","Cannonball Task","1","2021-08-16","21:26:09","begin_round","placeshield_mouse","ODDBALL","ODDBALL","0.8599999999999999867","5","2","18.7749999999999985789","0","1","0","0","48.6475255654087916923","347.6038023517531883044","60.8787029439611941939","46.7013546053261237034","588","1","2","4","7","0","138605","168395","168446","165718","167221","Arc40.png","","64.701354605326116598","28.7013546053261237034","6"
"6.4.2","Cannonball Task","1","2021-08-16","21:26:09","begin_round","revealshield","ODDBALL","ODDBALL","0.8599999999999999867","5","2","18.7749999999999985789","0","1","0","0","48.6475255654087916923","347.6038023517531883044","60.8787029439611941939","46.7013546053261237034","588","1","2","4","7","0","138605","168395","168446","169046","167221","Arc10.png","","49.7013546053261237034","43.7013546053261237034","6"
"6.4.2","Cannonball Task","1","2021-08-16","21:26:09","begin_round","cannon_outcome","ODDBALL","ODDBALL","0.8599999999999999867","5","2","18.7749999999999985789","0","1","0","0","48.6475255654087916923","347.6038023517531883044","60.8787029439611941939","46.7013546053261237034","588","1","2","5","7","0","138605","168395","168446","169046","170548","Arc10.png","","49.7013546053261237034","43.7013546053261237034","6"
"6.4.2","Cannonball Task","1","2021-08-16","21:26:09","begin_round","Reminder","ODDBALL","ODDBALL","0.8599999999999999867","5","2","18.7749999999999985789","0","1","0","0","48.6475255654087916923","347.6038023517531883044","60.8787029439611941939","46.7013546053261237034","588","1","2","5","7","0","138605","168395","168446","169046","170548","Arc10.png","","49.7013546053261237034","43.7013546053261237034","6"
"6.4.2","Cannonball Task","1","2021-08-16","21:26:09","begin_round","mainloop","ODDBALL","ODDBALL","0.8599999999999999867","5","2","18.7749999999999985789","0","1","0","0","51.927276610005975499","347.6038023517531883044","28.4460692846501501663","46.7013546053261237034","588","1","2","5","7","0","138605","171871","168446","169046","170548","Arc10.png","","49.7013546053261237034","43.7013546053261237034","6"
"6.4.2","Cannonball Task","1","2021-08-16","21:26:09","begin_round","placeshield_mouse","ODDBALL","ODDBALL","0.8599999999999999867","5","2","18.7749999999999985789","0","1","0","0","51.927276610005975499","347.6038023517531883044","28.4460692846501501663","61.8639394097781689652","619","1","2","5","7","0","138605","171871","171922","169046","170548","Arc10.png","","64.8639394097781689652","58.8639394097781689652","6"
"6.4.2","Cannonball Task","1","2021-08-16","21:26:09","begin_round","revealshield","ODDBALL","ODDBALL","0.8599999999999999867","5","2","18.7749999999999985789","0","1","0","0","51.927276610005975499","347.6038023517531883044","28.4460692846501501663","61.8639394097781689652","619","1","2","5","7","0","138605","171871","171922","172545","170548","Arc24.png","","71.8639394097781689652","51.8639394097781689652","6"
"6.4.2","Cannonball Task","1","2021-08-16","21:26:09","begin_round","cannon_outcome","ODDBALL","ODDBALL","0.8599999999999999867","5","2","18.7749999999999985789","0","1","0","0","51.927276610005975499","347.6038023517531883044","28.4460692846501501663","61.8639394097781689652","619","1","2","6","7","0","138605","171871","171922","172545","174049","Arc24.png","","71.8639394097781689652","51.8639394097781689652","6"
"6.4.2","Cannonball Task","1","2021-08-16","21:26:09","begin_round","Reminder","ODDBALL","ODDBALL","0.8599999999999999867","5","2","18.7749999999999985789","0","1","0","0","51.927276610005975499","347.6038023517531883044","28.4460692846501501663","61.8639394097781689652","619","1","2","6","7","0","138605","171871","171922","172545","174049","Arc24.png","","71.8639394097781689652","51.8639394097781689652","6"
"6.4.2","Cannonball Task","1","2021-08-16","21:26:09","begin_round","mainloop","ODDBALL","ODDBALL","0.8599999999999999867","5","2","18.7749999999999985789","0","1","0","0","48.2003513405793029278","347.6038023517531883044","72.8776472911509642927","61.8639394097781689652","619","1","2","6","7","0","138605","175954","171922","172545","174049","Arc24.png","","71.8639394097781689652","51.8639394097781689652","6"
"6.4.2","Cannonball Task","1","2021-08-16","21:26:09","begin_round","placeshield_mouse","ODDBALL","ODDBALL","0.8599999999999999867","5","2","18.7749999999999985789","0","1","0","0","48.2003513405793029278","347.6038023517531883044","72.8776472911509642927","38.1880722261188552125","1146","1","2","6","7","0","138605","175954","176006","172545","174049","Arc24.png","","48.1880722261188552125","28.1880722261188552125","6"
"6.4.2","Cannonball Task","1","2021-08-16","21:26:09","begin_round","revealshield","ODDBALL","ODDBALL","0.8599999999999999867","5","2","18.7749999999999985789","0","1","0","0","48.2003513405793029278","347.6038023517531883044","72.8776472911509642927","38.1880722261188552125","1146","1","2","6","7","0","138605","175954","176006","177158","174049","Arc6.png","","39.1880722261188552125","37.1880722261188552125","6"
"6.4.2","Cannonball Task","1","2021-08-16","21:26:09","begin_round","cannon_outcome","ODDBALL","ODDBALL","0.8599999999999999867","5","2","18.7749999999999985789","0","1","0","0","48.2003513405793029278","347.6038023517531883044","72.8776472911509642927","38.1880722261188552125","1146","1","2","7","7","0","138605","175954","176006","177158","178661","Arc6.png","","39.1880722261188552125","37.1880722261188552125","6"
"6.4.2","Cannonball Task","1","2021-08-16","21:26:09","begin_round","Reminder","ODDBALL","ODDBALL","0.8599999999999999867","5","2","18.7749999999999985789","0","1","0","0","48.2003513405793029278","347.6038023517531883044","72.8776472911509642927","38.1880722261188552125","1146","1","2","7","7","0","138605","175954","176006","177158","178661","Arc6.png","","39.1880722261188552125","37.1880722261188552125","6"
"6.4.2","Cannonball Task","1","2021-08-16","21:26:09","begin_round","mainloop","ODDBALL","ODDBALL","0.8599999999999999867","5","2","18.7749999999999985789","0","1","1","0","48.2003513405793029278","347.6038023517531883044","316.4025000101892715065","38.1880722261188552125","1146","1","2","7","7","0","138605","180094","176006","177158","178661","Arc6.png","","39.1880722261188552125","37.1880722261188552125","6"
"6.4.2","Cannonball Task","1","2021-08-16","21:26:09","begin_round","placeshield_mouse","ODDBALL","ODDBALL","0.8599999999999999867","5","2","18.7749999999999985789","0","1","1","0","48.2003513405793029278","347.6038023517531883044","316.4025000101892715065","71.3010171958189005181","697","1","2","7","7","0","138605","180094","180146","177158","178661","Arc6.png","","72.3010171958189005181","70.3010171958189005181","6"
"6.4.2","Cannonball Task","1","2021-08-16","21:26:09","begin_round","revealshield","ODDBALL","ODDBALL","0.8599999999999999867","5","2","18.7749999999999985789","0","1","1","0","48.2003513405793029278","347.6038023517531883044","316.4025000101892715065","71.3010171958189005181","697","1","2","7","7","0","138605","180094","180146","180859","178661","Arc42.png","","90.3010171958189005181","52.3010171958189005181","6"
"6.4.2","Cannonball Task","1","2021-08-16","21:26:09","begin_round","cannon_outcome","ODDBALL","ODDBALL","0.8599999999999999867","5","2","18.7749999999999985789","0","1","1","0","48.2003513405793029278","347.6038023517531883044","316.4025000101892715065","71.3010171958189005181","697","1","2","8","7","0","138605","180094","180146","180859","182362","Arc42.png","","90.3010171958189005181","52.3010171958189005181","6"
"6.4.2","Cannonball Task","1","2021-08-16","21:26:09","begin_round","Reminder","ODDBALL","ODDBALL","0.8599999999999999867","5","2","18.7749999999999985789","0","1","1","0","48.2003513405793029278","347.6038023517531883044","316.4025000101892715065","71.3010171958189005181","697","1","2","8","7","0","138605","180094","180146","180859","182362","Arc42.png","","90.3010171958189005181","52.3010171958189005181","6"
"6.4.2","Cannonball Task","1","2021-08-16","21:26:09","begin_round","mainloop","ODDBALL","ODDBALL","0.8599999999999999867","5","2","18.7749999999999985789","0","1","1","0","48.2003513405793029278","347.6038023517531883044","78.3890004172895515921","71.3010171958189005181","697","1","2","8","7","0","138605","183210","180146","180859","182362","Arc42.png","","90.3010171958189005181","52.3010171958189005181","6"
"6.4.2","Cannonball Task","1","2021-08-16","21:26:09","begin_round","placeshield_mouse","ODDBALL","ODDBALL","0.8599999999999999867","5","2","18.7749999999999985789","0","1","1","0","48.2003513405793029278","347.6038023517531883044","78.3890004172895515921","50.1944289077348102524","967","1","2","8","7","0","138605","183210","183263","180859","182362","Arc42.png","","69.1944289077348173578","31.1944289077348102524","6"
"6.4.2","Cannonball Task","1","2021-08-16","21:26:09","begin_round","revealshield","ODDBALL","ODDBALL","0.8599999999999999867","5","2","18.7749999999999985789","0","1","1","0","48.2003513405793029278","347.6038023517531883044","78.3890004172895515921","50.1944289077348102524","967","1","2","8","7","0","138605","183210","183263","184245","182362","Arc56.png","","76.1944289077348173578","24.1944289077348102524","6"
"6.4.2","Cannonball Task","1","2021-08-16","21:26:09","begin_round","cannon_outcome","ODDBALL","ODDBALL","0.8599999999999999867","5","2","18.7749999999999985789","0","1","1","0","48.2003513405793029278","347.6038023517531883044","78.3890004172895515921","50.1944289077348102524","967","1","2","9","7","0","138605","183210","183263","184245","185748","Arc56.png","","76.1944289077348173578","24.1944289077348102524","6"
"6.4.2","Cannonball Task","1","2021-08-16","21:26:09","begin_round","Reminder","ODDBALL","ODDBALL","0.8599999999999999867","5","2","18.7749999999999985789","0","1","1","0","48.2003513405793029278","347.6038023517531883044","78.3890004172895515921","50.1944289077348102524","967","1","2","9","7","0","138605","183210","183263","184245","185748","Arc56.png","","76.1944289077348173578","24.1944289077348102524","6"
"6.4.2","Cannonball Task","1","2021-08-16","21:26:09","begin_round","mainloop","ODDBALL","ODDBALL","0.8599999999999999867","5","2","18.7749999999999985789","0","1","0","0","50.1000756245531277955","347.6038023517531883044","33.8293632623033033724","50.1944289077348102524","967","1","2","9","7","0","138605","186563","183263","184245","185748","Arc56.png","","76.1944289077348173578","24.1944289077348102524","6"
"6.4.2","Cannonball Task","1","2021-08-16","21:26:09","begin_round","placeshield_mouse","ODDBALL","ODDBALL","0.8599999999999999867","5","2","18.7749999999999985789","0","1","0","0","50.1000756245531277955","347.6038023517531883044","33.8293632623033033724","73.8355008477430914127","630","1","2","9","7","0","138605","186563","186614","184245","185748","Arc56.png","","99.8355008477430914127","47.8355008477430914127","6"
"6.4.2","Cannonball Task","1","2021-08-16","21:26:09","begin_round","revealshield","ODDBALL","ODDBALL","0.8599999999999999867","5","2","18.7749999999999985789","0","1","0","0","50.1000756245531277955","347.6038023517531883044","33.8293632623033033724","73.8355008477430914127","630","1","2","9","7","0","138605","186563","186614","187260","185748","Arc26.png","","84.8355008477430914127","62.8355008477430914127","6"
"6.4.2","Cannonball Task","1","2021-08-16","21:26:09","begin_round","cannon_outcome","ODDBALL","ODDBALL","0.8599999999999999867","5","2","18.7749999999999985789","0","1","0","0","50.1000756245531277955","347.6038023517531883044","33.8293632623033033724","73.8355008477430914127","630","1","2","10","7","0","138605","186563","186614","187260","188762","Arc26.png","","84.8355008477430914127","62.8355008477430914127","6"
"6.4.2","Cannonball Task","1","2021-08-16","21:26:09","begin_round","Reminder","ODDBALL","ODDBALL","0.8599999999999999867","5","2","18.7749999999999985789","0","1","0","0","50.1000756245531277955","347.6038023517531883044","33.8293632623033033724","73.8355008477430914127","630","1","2","10","7","0","138605","186563","186614","187260","188762","Arc26.png","","84.8355008477430914127","62.8355008477430914127","6"
"6.4.2","Cannonball Task","1","2021-08-16","21:26:09","begin_round","mainloop","ODDBALL","ODDBALL","0.8599999999999999867","5","2","18.7749999999999985789","0","1","0","0","46.7731537978861950933","347.6038023517531883044","57.560721841768405227","73.8355008477430914127","630","1","2","10","7","0","138605","190253","186614","187260","188762","Arc26.png","","84.8355008477430914127","62.8355008477430914127","6"
"6.4.2","Cannonball Task","1","2021-08-16","21:26:09","begin_round","placeshield_mouse","ODDBALL","ODDBALL","0.8599999999999999867","5","2","18.7749999999999985789","0","1","0","0","46.7731537978861950933","347.6038023517531883044","57.560721841768405227","44.8070856464669660113","578","1","2","10","7","0","138605","190253","190304","187260","188762","Arc26.png","","55.8070856464669660113","33.8070856464669660113","6"
"6.4.2","Cannonball Task","1","2021-08-16","21:26:09","begin_round","revealshield","ODDBALL","ODDBALL","0.8599999999999999867","5","2","18.7749999999999985789","0","1","0","0","46.7731537978861950933","347.6038023517531883044","57.560721841768405227","44.8070856464669660113","578","1","2","10","7","0","138605","190253","190304","190894","188762","Arc16.png","","50.8070856464669660113","38.8070856464669660113","6"
"6.4.2","Cannonball Task","1","2021-08-16","21:26:09","begin_round","cannon_outcome","ODDBALL","ODDBALL","0.8599999999999999867","5","2","18.7749999999999985789","0","1","0","0","46.7731537978861950933","347.6038023517531883044","57.560721841768405227","44.8070856464669660113","578","1","2","11","7","0","138605","190253","190304","190894","192395","Arc16.png","","50.8070856464669660113","38.8070856464669660113","6"
"6.4.2","Cannonball Task","1","2021-08-16","21:26:09","begin_round","Reminder","ODDBALL","ODDBALL","0.8599999999999999867","5","2","18.7749999999999985789","0","1","0","0","46.7731537978861950933","347.6038023517531883044","57.560721841768405227","44.8070856464669660113","578","1","2","11","7","0","138605","190253","190304","190894","192395","Arc16.png","","50.8070856464669660113","38.8070856464669660113","6"
"6.4.2","Cannonball Task","1","2021-08-16","21:26:09","begin_round","mainloop","ODDBALL","ODDBALL","0.8599999999999999867","5","2","18.7749999999999985789","0","1","0","0","46.8700722368272337803","347.6038023517531883044","83.8632026228218308006","44.8070856464669660113","578","1","2","11","7","0","138605","193346","190304","190894","192395","Arc16.png","","50.8070856464669660113","38.8070856464669660113","6"
"6.4.2","Cannonball Task","1","2021-08-16","21:26:09","begin_round","placeshield_mouse","ODDBALL","ODDBALL","0.8599999999999999867","5","2","18.7749999999999985789","0","1","0","0","46.8700722368272337803","347.6038023517531883044","83.8632026228218308006","64.429135878428809292","821","1","2","11","7","0","138605","193346","193398","190894","192395","Arc16.png","","70.429135878428809292","58.429135878428809292","6"
"6.4.2","Cannonball Task","1","2021-08-16","21:26:09","begin_round","revealshield","ODDBALL","ODDBALL","0.8599999999999999867","5","2","18.7749999999999985789","0","1","0","0","46.8700722368272337803","347.6038023517531883044","83.8632026228218308006","64.429135878428809292","821","1","2","11","7","0","138605","193346","193398","194235","192395","Arc8.png","","66.429135878428809292","62.429135878428809292","6"
"6.4.2","Cannonball Task","1","2021-08-16","21:26:09","begin_round","cannon_outcome","ODDBALL","ODDBALL","0.8599999999999999867","5","2","18.7749999999999985789","0","1","0","0","46.8700722368272337803","347.6038023517531883044","83.8632026228218308006","64.429135878428809292","821","1","2","12","7","0","138605","193346","193398","194235","195737","Arc8.png","","66.429135878428809292","62.429135878428809292","6"
