"build","experimentName","subject","date","time","blockcode","trialcode","list.Condition.currentvalue","cond","condcolor","percentTrialsStay","practiceblock","cannon","conc","blocknum","trialnum","StaySwitch","TAC","hitmiss","angmu","outcome","placementAngle","prev_placementAngle","trial.placeshield_mouse.latency","cannonballs_caught","cannonballs_missed","totalearnings","angleup","angledown","outcomeindex","update","distmean","shield_size","blockearnings","block.InstructionBlock.timestamp","trial.begin_block.timestamp","trial.mainloop.timestamp","trial.placeshield_mouse.timestamp","trial.showPE.timestamp","trial.cannon_outcome.timestamp","picture.shield.currentitem"
"6.4.2","Cannonball Task","1","2021-08-30","09:55:09","InstructionBlock","Phase_starts","","0","0","0.8599999999999999867","1","1","18.7749999999999985789","0","0","0","0","0","0","0","0","0","0","0","0","0","3","-3","0","0","0","3","0","0","0","0","0","0","0","Arc5.png"
"6.4.2","Cannonball Task","1","2021-08-30","09:55:09","InstructionBlock","Instructions_BeginTask","","0","0","0.8599999999999999867","1","1","18.7749999999999985789","0","0","0","0","0","0","0","0","0","0","0","0","0","3","-3","0","0","0","3","0","0","0","0","0","0","0","Arc5.png"
"6.4.2","Cannonball Task","1","2021-08-30","09:55:09","InstructionBlock","Instructions_PlaceShield_delay","","0","0","0.8599999999999999867","1","1","18.7749999999999985789","0","0","0","0","0","0","0","0","0","0","0","0","0","3","-3","0","0","0","3","0","0","0","0","0","0","0","Arc5.png"
"6.4.2","Cannonball Task","1","2021-08-30","09:55:09","InstructionBlock","Instructions_PlaceShield_delay","","0","0","0.8599999999999999867","1","1","18.7749999999999985789","0","0","0","0","0","0","0","0","0","0","0","0","0","3","-3","0","0","0","3","0","0","0","0","0","0","0","Arc5.png"
"6.4.2","Cannonball Task","1","2021-08-30","09:55:09","InstructionBlock","Instructions_PlaceShield_delay","","0","0","0.8599999999999999867","1","1","18.7749999999999985789","0","0","0","0","0","0","0","0","0","0","0","0","0","3","-3","0","0","0","3","0","0","0","0","0","0","0","Arc5.png"
"6.4.2","Cannonball Task","1","2021-08-30","09:55:09","InstructionBlock","lockin","","0","0","0.8599999999999999867","1","1","18.7749999999999985789","0","0","0","0","0","0","0","0","0","0","0","0","0","3","-3","0","0","0","3","0","0","0","0","0","0","0","Arc5.png"
"6.4.2","Cannonball Task","1","2021-08-30","09:55:09","InstructionBlock","Instructions_PlaceShield","","0","0","0.8599999999999999867","1","1","18.7749999999999985789","0","0","0","0","0","0","0","360","0","0","0","0","0","363","357","0","0","0","3","0","0","0","0","0","0","0","Arc5.png"
"6.4.2","Cannonball Task","1","2021-08-30","09:55:09","InstructionBlock","Instructions_CannonOutcome","","0","0","0.8599999999999999867","1","1","18.7749999999999985789","0","0","0","0","0","0","0","360","0","0","0","0","0","363","357","0","0","0","3","0","0","0","0","0","0","0","Arc5.png"
"6.4.2","Cannonball Task","1","2021-08-30","09:55:09","InstructionBlock","cannon_outcome","","0","0","0.8599999999999999867","1","1","18.7749999999999985789","0","0","0","0","1","0","0","360","0","0","0","0","0","363","357","3","0","0","3","0","0","0","0","0","0","6012","Arc5.png"
"6.4.2","Cannonball Task","1","2021-08-30","09:55:09","InstructionBlock","Instructions_RevealShield","","0","0","0.8599999999999999867","2","1","18.7749999999999985789","0","0","0","0","1","0","0","360","0","0","0","0","0","363","357","3","0","0","3","0","0","0","0","0","0","6012","Arc5.png"
"6.4.2","Cannonball Task","1","2021-08-30","09:55:09","InstructionBlock","Instructions_RevealShield","","0","0","0.8599999999999999867","2","1","18.7749999999999985789","0","0","0","0","1","0","0","360","0","0","0","0","0","363","357","3","0","0","3","0","0","0","0","0","0","6012","Arc5.png"
"6.4.2","Cannonball Task","1","2021-08-30","09:55:09","InstructionBlock","Instructions_RevealShield","","0","0","0.8599999999999999867","2","1","18.7749999999999985789","0","0","0","0","1","0","0","360","0","0","0","0","0","363","357","3","0","0","3","0","0","0","0","0","0","6012","Arc5.png"
"6.4.2","Cannonball Task","1","2021-08-30","09:55:09","InstructionBlock","mainloop","","0","0","0.8599999999999999867","2","1","18.7749999999999985789","0","0","0","0","1","0","0","360","0","0","0","0","0","363","357","3","0","0","3","0","0","0","9165","0","0","6012","Arc5.png"
"6.4.2","Cannonball Task","1","2021-08-30","09:55:09","InstructionBlock","placeshield_mouse","","0","0","0.8599999999999999867","2","1","18.7749999999999985789","0","0","0","0","1","0","0","1.3574658445306089227","360","1193","0","0","0","4.3574658445306084786","-1.6425341554693910773","3","0","0","3","0","0","0","9165","9222","0","6012","Arc5.png"
"6.4.2","Cannonball Task","1","2021-08-30","09:55:09","InstructionBlock","revealshield","","0","0","0.8599999999999999867","2","1","18.7749999999999985789","0","0","0","0","1","0","0","1.3574658445306089227","360","1193","0","0","0","47.3574658445306084786","-44.6425341554693915214","3","358.6425341554693773105","1.3574658445306089227","46","0","0","0","9165","9222","10427","6012","Arc46.png"
"6.4.2","Cannonball Task","1","2021-08-30","09:55:09","InstructionBlock","cannon_outcome","","0","0","0.8599999999999999867","2","1","18.7749999999999985789","0","0","0","0","1","0","0","1.3574658445306089227","360","1193","1","0","0","47.3574658445306084786","-44.6425341554693915214","5","358.6425341554693773105","1.3574658445306089227","46","0","0","0","9165","9222","10427","11948","Arc46.png"
"6.4.2","Cannonball Task","1","2021-08-30","09:55:09","InstructionBlock","mainloop","","0","0","0.8599999999999999867","2","1","18.7749999999999985789","0","0","0","0","1","0","0","1.3574658445306089227","360","1193","1","0","0","47.3574658445306084786","-44.6425341554693915214","5","358.6425341554693773105","1.3574658445306089227","46","0","0","0","12270","9222","10427","11948","Arc46.png"
"6.4.2","Cannonball Task","1","2021-08-30","09:55:09","InstructionBlock","placeshield_mouse","","0","0","0.8599999999999999867","2","1","18.7749999999999985789","0","0","0","0","1","0","0","1.3574658445306089227","1.3574658445306089227","204","1","0","0","47.3574658445306084786","-44.6425341554693915214","5","358.6425341554693773105","1.3574658445306089227","46","0","0","0","12270","12324","10427","11948","Arc46.png"
"6.4.2","Cannonball Task","1","2021-08-30","09:55:09","InstructionBlock","revealshield","","0","0","0.8599999999999999867","2","1","18.7749999999999985789","0","0","0","0","1","0","0","1.3574658445306089227","1.3574658445306089227","204","1","0","0","15.3574658445306084786","-12.6425341554693915214","5","0","1.3574658445306089227","14","0","0","0","12270","12324","12539","11948","Arc14.png"
"6.4.2","Cannonball Task","1","2021-08-30","09:55:09","InstructionBlock","cannon_outcome","","0","0","0.8599999999999999867","2","1","18.7749999999999985789","0","0","0","0","1","0","0","1.3574658445306089227","1.3574658445306089227","204","2","0","0","15.3574658445306084786","-12.6425341554693915214","5","0","1.3574658445306089227","14","0","0","0","12270","12324","12539","14056","Arc14.png"
"6.4.2","Cannonball Task","1","2021-08-30","09:55:09","InstructionBlock","mainloop","","0","0","0.8599999999999999867","2","1","18.7749999999999985789","0","0","0","0","1","0","0","1.3574658445306089227","1.3574658445306089227","204","2","0","0","15.3574658445306084786","-12.6425341554693915214","5","0","1.3574658445306089227","14","0","0","0","14385","12324","12539","14056","Arc14.png"
"6.4.2","Cannonball Task","1","2021-08-30","09:55:09","InstructionBlock","placeshield_mouse","","0","0","0.8599999999999999867","2","1","18.7749999999999985789","0","0","0","0","1","0","0","1.3574658445306089227","1.3574658445306089227","209","2","0","0","15.3574658445306084786","-12.6425341554693915214","5","0","1.3574658445306089227","14","0","0","0","14385","14438","12539","14056","Arc14.png"
"6.4.2","Cannonball Task","1","2021-08-30","09:55:09","InstructionBlock","revealshield","","0","0","0.8599999999999999867","2","1","18.7749999999999985789","0","0","0","0","1","0","0","1.3574658445306089227","1.3574658445306089227","209","2","0","0","40.3574658445306084786","-37.6425341554693915214","5","0","1.3574658445306089227","39","0","0","0","14385","14438","14659","14056","Arc39.png"
"6.4.2","Cannonball Task","1","2021-08-30","09:55:09","InstructionBlock","cannon_outcome","","0","0","0.8599999999999999867","2","1","18.7749999999999985789","0","0","0","0","1","0","0","1.3574658445306089227","1.3574658445306089227","209","3","0","0","40.3574658445306084786","-37.6425341554693915214","5","0","1.3574658445306089227","39","0","0","0","14385","14438","14659","16176","Arc39.png"
"6.4.2","Cannonball Task","1","2021-08-30","09:55:09","InstructionBlock","mainloop","","0","0","0.8599999999999999867","2","1","18.7749999999999985789","0","0","0","0","1","0","0","1.3574658445306089227","1.3574658445306089227","209","3","0","0","40.3574658445306084786","-37.6425341554693915214","5","0","1.3574658445306089227","39","0","0","0","16503","14438","14659","16176","Arc39.png"
"6.4.2","Cannonball Task","1","2021-08-30","09:55:09","InstructionBlock","placeshield_mouse","","0","0","0.8599999999999999867","2","1","18.7749999999999985789","0","0","0","0","1","0","0","1.3574658445306089227","1.3574658445306089227","342","3","0","0","40.3574658445306084786","-37.6425341554693915214","5","0","1.3574658445306089227","39","0","0","0","16503","16556","14659","16176","Arc39.png"
"6.4.2","Cannonball Task","1","2021-08-30","09:55:09","InstructionBlock","revealshield","","0","0","0.8599999999999999867","2","1","18.7749999999999985789","0","0","0","0","1","0","0","1.3574658445306089227","1.3574658445306089227","342","3","0","0","29.3574658445306084786","-26.6425341554693915214","5","0","1.3574658445306089227","28","0","0","0","16503","16556","16908","16176","Arc28.png"
"6.4.2","Cannonball Task","1","2021-08-30","09:55:09","InstructionBlock","cannon_outcome","","0","0","0.8599999999999999867","2","1","18.7749999999999985789","0","0","0","0","1","0","0","1.3574658445306089227","1.3574658445306089227","342","4","0","0","29.3574658445306084786","-26.6425341554693915214","5","0","1.3574658445306089227","28","0","0","0","16503","16556","16908","18425","Arc28.png"
"6.4.2","Cannonball Task","1","2021-08-30","09:55:09","InstructionBlock","PracticeBlock_CannonMoves","","0","0","0.8599999999999999867","3","1","18.7749999999999985789","0","0","0","0","1","0","0","1.3574658445306089227","1.3574658445306089227","342","4","0","0","29.3574658445306084786","-26.6425341554693915214","5","0","1.3574658445306089227","28","0","0","0","16503","16556","16908","18425","Arc28.png"
"6.4.2","Cannonball Task","1","2021-08-30","09:55:09","InstructionBlock","PracticeBlock_CannonNotAccurate","","0","0","0.8599999999999999867","3","1","18.7749999999999985789","0","0","0","0","1","0","0","1.3574658445306089227","1.3574658445306089227","342","4","0","0","29.3574658445306084786","-26.6425341554693915214","5","0","1.3574658445306089227","28","0","0","0","16503","16556","16908","18425","Arc28.png"
"6.4.2","Cannonball Task","1","2021-08-30","09:55:09","InstructionBlock","ClicktoContinue","","0","0","0.8599999999999999867","3","1","18.7749999999999985789","0","0","0","0","1","0","0","1.3574658445306089227","1.3574658445306089227","342","4","0","0","29.3574658445306084786","-26.6425341554693915214","5","0","1.3574658445306089227","28","0","0","0","16503","16556","16908","18425","Arc28.png"
"6.4.2","Cannonball Task","1","2021-08-30","09:55:09","InstructionBlock","mainloop","","0","0","0.8599999999999999867","3","1","18.7749999999999985789","0","0","0","0","1","279.2859012166238130703","279.2859012166238130703","1.3574658445306089227","1.3574658445306089227","342","4","0","0","29.3574658445306084786","-26.6425341554693915214","5","0","1.3574658445306089227","28","0","0","0","21608","16556","16908","18425","Arc28.png"
"6.4.2","Cannonball Task","1","2021-08-30","09:55:09","InstructionBlock","placeshield_mouse","","0","0","0.8599999999999999867","3","1","18.7749999999999985789","0","0","0","0","1","279.2859012166238130703","279.2859012166238130703","275.9061411137705022156","1.3574658445306089227","987","4","0","0","303.9061411137705022156","247.9061411137705022156","5","0","1.3574658445306089227","28","0","0","0","21608","21664","16908","18425","Arc28.png"
"6.4.2","Cannonball Task","1","2021-08-30","09:55:09","InstructionBlock","revealshield","","0","0","0.8599999999999999867","3","1","18.7749999999999985789","0","0","0","0","1","279.2859012166238130703","279.2859012166238130703","275.9061411137705022156","1.3574658445306089227","987","4","0","0","288.9061411137705022156","262.9061411137705022156","5","274.5486752692398795261","3.3797601028533108547","13","0","0","0","21608","21664","22660","18425","Arc13.png"
"6.4.2","Cannonball Task","1","2021-08-30","09:55:09","InstructionBlock","cannon_outcome","","0","0","0.8599999999999999867","3","1","18.7749999999999985789","0","0","0","0","1","279.2859012166238130703","279.2859012166238130703","275.9061411137705022156","1.3574658445306089227","987","5","0","0","288.9061411137705022156","262.9061411137705022156","5","274.5486752692398795261","3.3797601028533108547","13","0","0","0","21608","21664","22660","24178","Arc13.png"
"6.4.2","Cannonball Task","1","2021-08-30","09:55:09","InstructionBlock","mainloop","","0","0","0.8599999999999999867","3","1","18.7749999999999985789","0","0","0","0","1","191.783929372155995452","191.783929372155995452","275.9061411137705022156","1.3574658445306089227","987","5","0","0","288.9061411137705022156","262.9061411137705022156","5","274.5486752692398795261","3.3797601028533108547","13","0","0","0","24488","21664","22660","24178","Arc13.png"
"6.4.2","Cannonball Task","1","2021-08-30","09:55:09","InstructionBlock","placeshield_mouse","","0","0","0.8599999999999999867","3","1","18.7749999999999985789","0","0","0","0","1","191.783929372155995452","191.783929372155995452","187.35237935989235325","275.9061411137705022156","1124","5","0","0","200.35237935989235325","174.35237935989235325","5","274.5486752692398795261","3.3797601028533108547","13","0","0","0","24488","24543","22660","24178","Arc13.png"
"6.4.2","Cannonball Task","1","2021-08-30","09:55:09","InstructionBlock","revealshield","","0","0","0.8599999999999999867","3","1","18.7749999999999985789","0","0","0","0","1","191.783929372155995452","191.783929372155995452","187.35237935989235325","275.9061411137705022156","1124","5","0","0","193.35237935989235325","181.35237935989235325","5","88.5537617538781489657","4.431550012263642202","6","0","0","0","24488","24543","25675","24178","Arc6.png"
"6.4.2","Cannonball Task","1","2021-08-30","09:55:09","InstructionBlock","cannon_outcome","","0","0","0.8599999999999999867","3","1","18.7749999999999985789","0","0","0","0","0","191.783929372155995452","191.783929372155995452","187.35237935989235325","275.9061411137705022156","1124","5","1","0","193.35237935989235325","181.35237935989235325","6","88.5537617538781489657","4.431550012263642202","6","0","0","0","24488","24543","25675","27193","Arc6.png"
"6.4.2","Cannonball Task","1","2021-08-30","09:55:09","InstructionBlock","mainloop","","0","0","0.8599999999999999867","3","1","18.7749999999999985789","0","0","0","0","0","159.6830938755728084288","159.6830938755728084288","187.35237935989235325","275.9061411137705022156","1124","5","1","0","193.35237935989235325","181.35237935989235325","6","88.5537617538781489657","4.431550012263642202","6","0","0","0","27507","24543","25675","27193","Arc6.png"
"6.4.2","Cannonball Task","1","2021-08-30","09:55:09","InstructionBlock","placeshield_mouse","","0","0","0.8599999999999999867","3","1","18.7749999999999985789","0","0","0","0","0","159.6830938755728084288","159.6830938755728084288","2.489552921999156343","187.35237935989235325","631","5","1","0","8.4895529219991558989","-3.510447078000843657","6","88.5537617538781489657","4.431550012263642202","6","0","0","0","27507","27562","25675","27193","Arc6.png"
"6.4.2","Cannonball Task","1","2021-08-30","09:55:09","InstructionBlock","revealshield","","0","0","0.8599999999999999867","3","1","18.7749999999999985789","0","0","0","0","0","159.6830938755728084288","159.6830938755728084288","2.489552921999156343","187.35237935989235325","631","5","1","0","26.4895529219991558989","-21.5104470780008441011","6","184.8628264378932044565","157.1935409535736596354","24","0","0","0","27507","27562","28202","27193","Arc24.png"
"6.4.2","Cannonball Task","1","2021-08-30","09:55:09","InstructionBlock","cannon_outcome","","0","0","0.8599999999999999867","3","1","18.7749999999999985789","0","0","0","0","0","159.6830938755728084288","159.6830938755728084288","2.489552921999156343","187.35237935989235325","631","5","1","0","26.4895529219991558989","-21.5104470780008441011","6","184.8628264378932044565","157.1935409535736596354","24","0","0","0","27507","27562","28202","29719","Arc24.png"
"6.4.2","Cannonball Task","1","2021-08-30","09:55:09","InstructionBlock","EndPractice","","CHANGEPOINT","0","0.8599999999999999867","4","1","18.7749999999999985789","0","0","0","0","0","159.6830938755728084288","159.6830938755728084288","2.489552921999156343","187.35237935989235325","631","0","0","2.5","26.4895529219991558989","-21.5104470780008441011","6","184.8628264378932044565","157.1935409535736596354","24","2.5","0","0","27507","27562","28202","29719","Arc24.png"
"6.4.2","Cannonball Task","1","2021-08-30","09:55:09","InstructionBlock","EndPractice","","CHANGEPOINT","0","0.8599999999999999867","4","1","18.7749999999999985789","0","0","0","0","0","159.6830938755728084288","159.6830938755728084288","2.489552921999156343","187.35237935989235325","631","0","0","2.5","26.4895529219991558989","-21.5104470780008441011","6","184.8628264378932044565","157.1935409535736596354","24","0","0","0","27507","27562","28202","29719","Arc24.png"
"6.4.2","Cannonball Task","1","2021-08-30","09:55:09","InstructionBlock","EndPractice","","CHANGEPOINT","0","0.8599999999999999867","4","1","18.7749999999999985789","0","0","0","0","0","159.6830938755728084288","159.6830938755728084288","2.489552921999156343","187.35237935989235325","631","0","0","2.5","26.4895529219991558989","-21.5104470780008441011","6","184.8628264378932044565","157.1935409535736596354","24","0","0","0","27507","27562","28202","29719","Arc24.png"
"6.4.2","Cannonball Task","1","2021-08-30","09:55:09","begin_round","Phase_starts","ODDBALL","ODDBALL","ORANGE","0.8599999999999999867","4","1","18.7749999999999985789","0","0","0","0","0","159.6830938755728084288","159.6830938755728084288","2.489552921999156343","187.35237935989235325","631","0","0","2.5","26.4895529219991558989","-21.5104470780008441011","6","184.8628264378932044565","157.1935409535736596354","24","0","0","0","27507","27562","28202","29719","Arc24.png"
"6.4.2","Cannonball Task","1","2021-08-30","09:55:09","begin_round","mainloop","ODDBALL","ODDBALL","ORANGE","0.8599999999999999867","4","1","18.7749999999999985789","0","0","0","0","0","213.4561991136079655007","172.8718503167359017425","2.489552921999156343","187.35237935989235325","631","0","0","2.5","26.4895529219991558989","-21.5104470780008441011","6","184.8628264378932044565","157.1935409535736596354","24","0","0","32556","35184","27562","28202","29719","Arc24.png"
"6.4.2","Cannonball Task","1","2021-08-30","09:55:09","begin_round","placeshield_mouse","ODDBALL","ODDBALL","ORANGE","0.8599999999999999867","4","1","18.7749999999999985789","0","0","0","0","0","213.4561991136079655007","172.8718503167359017425","212.9052429229878953265","2.489552921999156343","884","0","0","2.5","236.9052429229878953265","188.9052429229878953265","6","184.8628264378932044565","157.1935409535736596354","24","0","0","32556","35184","35241","28202","29719","Arc24.png"
"6.4.2","Cannonball Task","1","2021-08-30","09:55:09","begin_round","revealshield","ODDBALL","ODDBALL","ORANGE","0.8599999999999999867","4","1","18.7749999999999985789","0","0","0","0","0","213.4561991136079655007","172.8718503167359017425","212.9052429229878953265","2.489552921999156343","884","0","0","2.5","247.9052429229878953265","177.9052429229878953265","6","210.415690000988746533","0.5509561906200701742","35","0","0","32556","35184","35241","36142","29719","Arc35.png"
"6.4.2","Cannonball Task","1","2021-08-30","09:55:09","begin_round","cannon_outcome","ODDBALL","ODDBALL","ORANGE","0.8599999999999999867","4","1","18.7749999999999985789","0","0","0","0","0","213.4561991136079655007","172.8718503167359017425","212.9052429229878953265","2.489552921999156343","884","0","1","2.5","247.9052429229878953265","177.9052429229878953265","6","210.415690000988746533","0.5509561906200701742","35","0","0","32556","35184","35241","36142","37660","Arc35.png"
"6.4.2","Cannonball Task","1","2021-08-30","09:55:09","begin_round","mainloop","ODDBALL","ODDBALL","ORANGE","0.8599999999999999867","4","1","18.7749999999999985789","0","0","0","0","0","211.2351805752912525804","211.7546773246331497376","212.9052429229878953265","2.489552921999156343","884","0","1","2.5","247.9052429229878953265","177.9052429229878953265","6","210.415690000988746533","0.5509561906200701742","35","0","0","32556","37971","35241","36142","37660","Arc35.png"
"6.4.2","Cannonball Task","1","2021-08-30","09:55:09","begin_round","placeshield_mouse","ODDBALL","ODDBALL","ORANGE","0.8599999999999999867","4","1","18.7749999999999985789","0","0","0","0","0","211.2351805752912525804","211.7546773246331497376","201.9695962229873771321","212.9052429229878953265","202","0","1","2.5","236.9695962229873771321","166.9695962229873771321","6","210.415690000988746533","0.5509561906200701742","35","0","0","32556","37971","38025","36142","37660","Arc35.png"
"6.4.2","Cannonball Task","1","2021-08-30","09:55:09","begin_round","revealshield","ODDBALL","ODDBALL","ORANGE","0.8599999999999999867","4","1","18.7749999999999985789","0","0","0","0","0","211.2351805752912525804","211.7546773246331497376","201.9695962229873771321","212.9052429229878953265","202","0","1","2.5","252.9695962229873771321","150.9695962229873771321","6","10.9356467000005181944","9.2655843523038754483","51","0","0","32556","37971","38025","38239","37660","Arc51.png"
"6.4.2","Cannonball Task","1","2021-08-30","09:55:09","begin_round","cannon_outcome","ODDBALL","ODDBALL","ORANGE","0.8599999999999999867","4","1","18.7749999999999985789","0","0","0","0","1","211.2351805752912525804","211.7546773246331497376","201.9695962229873771321","212.9052429229878953265","202","1","1","2.5","252.9695962229873771321","150.9695962229873771321","5","10.9356467000005181944","9.2655843523038754483","51","0","0","32556","37971","38025","38239","39758","Arc51.png"
"6.4.2","Cannonball Task","1","2021-08-30","09:55:09","begin_round","mainloop","ODDBALL","ODDBALL","ORANGE","0.8599999999999999867","4","1","18.7749999999999985789","0","0","0","0","1","206.4936110186110340692","224.247088727883010506","201.9695962229873771321","212.9052429229878953265","202","1","1","2.5","252.9695962229873771321","150.9695962229873771321","5","10.9356467000005181944","9.2655843523038754483","51","0","0","32556","40073","38025","38239","39758","Arc51.png"
"6.4.2","Cannonball Task","1","2021-08-30","09:55:09","begin_round","placeshield_mouse","ODDBALL","ODDBALL","ORANGE","0.8599999999999999867","4","1","18.7749999999999985789","0","0","0","0","1","206.4936110186110340692","224.247088727883010506","206.4396776802148565366","201.9695962229873771321","153","1","1","2.5","257.4396776802148565366","155.4396776802148565366","5","10.9356467000005181944","9.2655843523038754483","51","0","0","32556","40073","40129","38239","39758","Arc51.png"
"6.4.2","Cannonball Task","1","2021-08-30","09:55:09","begin_round","revealshield","ODDBALL","ODDBALL","ORANGE","0.8599999999999999867","4","1","18.7749999999999985789","0","0","0","0","1","206.4936110186110340692","224.247088727883010506","206.4396776802148565366","201.9695962229873771321","153","1","1","2.5","216.4396776802148565366","196.4396776802148565366","5","4.4700814572274794045","0.0539333383961775326","10","0","0","32556","40073","40129","40289","39758","Arc10.png"
"6.4.2","Cannonball Task","1","2021-08-30","09:55:09","begin_round","cannon_outcome","ODDBALL","ODDBALL","ORANGE","0.8599999999999999867","4","1","18.7749999999999985789","0","0","0","0","0","206.4936110186110340692","224.247088727883010506","206.4396776802148565366","201.9695962229873771321","153","1","2","2.5","216.4396776802148565366","196.4396776802148565366","6","4.4700814572274794045","0.0539333383961775326","10","0","0","32556","40073","40129","40289","41805","Arc10.png"
"6.4.2","Cannonball Task","1","2021-08-30","09:55:09","begin_round","mainloop","ODDBALL","ODDBALL","ORANGE","0.8599999999999999867","4","1","18.7749999999999985789","0","0","0","0","0","209.8992298335893735839","155.4227091480058220441","206.4396776802148565366","201.9695962229873771321","153","1","2","2.5","216.4396776802148565366","196.4396776802148565366","6","4.4700814572274794045","0.0539333383961775326","10","0","0","32556","42123","40129","40289","41805","Arc10.png"
"6.4.2","Cannonball Task","1","2021-08-30","09:55:09","begin_round","placeshield_mouse","ODDBALL","ODDBALL","ORANGE","0.8599999999999999867","4","1","18.7749999999999985789","0","0","0","0","0","209.8992298335893735839","155.4227091480058220441","209.297267126081663946","206.4396776802148565366","165","1","2","2.5","219.297267126081663946","199.297267126081663946","6","4.4700814572274794045","0.0539333383961775326","10","0","0","32556","42123","42178","40289","41805","Arc10.png"
"6.4.2","Cannonball Task","1","2021-08-30","09:55:09","begin_round","revealshield","ODDBALL","ODDBALL","ORANGE","0.8599999999999999867","4","1","18.7749999999999985789","0","0","0","0","0","209.8992298335893735839","155.4227091480058220441","209.297267126081663946","206.4396776802148565366","165","1","2","2.5","231.297267126081663946","187.297267126081663946","6","2.8575894458668074094","0.6019627075077096379","22","0","0","32556","42123","42178","42354","41805","Arc22.png"
"6.4.2","Cannonball Task","1","2021-08-30","09:55:09","begin_round","cannon_outcome","ODDBALL","ODDBALL","ORANGE","0.8599999999999999867","4","1","18.7749999999999985789","0","0","0","0","0","209.8992298335893735839","155.4227091480058220441","209.297267126081663946","206.4396776802148565366","165","1","3","2.5","231.297267126081663946","187.297267126081663946","6","2.8575894458668074094","0.6019627075077096379","22","0","0","32556","42123","42178","42354","43872","Arc22.png"
"6.4.2","Cannonball Task","1","2021-08-30","09:55:09","begin_round","Reminder","ODDBALL","ODDBALL","ORANGE","0.8599999999999999867","4","1","18.7749999999999985789","0","0","0","0","0","209.8992298335893735839","155.4227091480058220441","209.297267126081663946","206.4396776802148565366","165","1","3","2.5","231.297267126081663946","187.297267126081663946","6","2.8575894458668074094","0.6019627075077096379","22","0","0","32556","42123","42178","42354","43872","Arc22.png"
"6.4.2","Cannonball Task","1","2021-08-30","09:55:09","begin_round","mainloop","ODDBALL","ODDBALL","ORANGE","0.8599999999999999867","4","1","18.7749999999999985789","0","0","1","0","0","209.8992298335893735839","198.9702637770609783274","209.297267126081663946","206.4396776802148565366","165","1","3","2.5","231.297267126081663946","187.297267126081663946","6","2.8575894458668074094","0.6019627075077096379","22","0","0","32556","45305","42178","42354","43872","Arc22.png"
"6.4.2","Cannonball Task","1","2021-08-30","09:55:09","begin_round","placeshield_mouse","ODDBALL","ODDBALL","ORANGE","0.8599999999999999867","4","1","18.7749999999999985789","0","0","1","0","0","209.8992298335893735839","198.9702637770609783274","211.1593045083443769272","209.297267126081663946","810","1","3","2.5","233.1593045083443769272","189.1593045083443769272","6","2.8575894458668074094","0.6019627075077096379","22","0","0","32556","45305","45361","42354","43872","Arc22.png"
"6.4.2","Cannonball Task","1","2021-08-30","09:55:09","begin_round","revealshield","ODDBALL","ODDBALL","ORANGE","0.8599999999999999867","4","1","18.7749999999999985789","0","0","1","0","0","209.8992298335893735839","198.9702637770609783274","211.1593045083443769272","209.297267126081663946","810","1","3","2.5","266.1593045083443485055","156.1593045083443769272","6","1.8620373822627129812","1.2600746747550033433","55","0","0","32556","45305","45361","46182","43872","Arc55.png"
"6.4.2","Cannonball Task","1","2021-08-30","09:55:09","begin_round","cannon_outcome","ODDBALL","ODDBALL","ORANGE","0.8599999999999999867","4","1","18.7749999999999985789","0","0","1","0","1","209.8992298335893735839","198.9702637770609783274","211.1593045083443769272","209.297267126081663946","810","2","3","2.5","266.1593045083443485055","156.1593045083443769272","5","1.8620373822627129812","1.2600746747550033433","55","0","0","32556","45305","45361","46182","47711","Arc55.png"
"6.4.2","Cannonball Task","1","2021-08-30","09:55:09","begin_round","EndPracticePhase","ODDBALL","ODDBALL","ORANGE","0.8599999999999999867","5","1","18.7749999999999985789","0","0","1","0","1","209.8992298335893735839","198.9702637770609783274","211.1593045083443769272","209.297267126081663946","810","2","3","3.5","266.1593045083443485055","156.1593045083443769272","5","1.8620373822627129812","1.2600746747550033433","55","1","0","32556","45305","45361","46182","47711","Arc55.png"
"6.4.2","Cannonball Task","1","2021-08-30","09:55:09","begin_round","PracticeBlock_CannonNotVisible","ODDBALL","ODDBALL","ORANGE","0.8599999999999999867","5","2","18.7749999999999985789","0","1","1","0","1","77.8849274287663604355","198.9702637770609783274","211.1593045083443769272","209.297267126081663946","810","2","3","3.5","266.1593045083443485055","156.1593045083443769272","5","1.8620373822627129812","1.2600746747550033433","55","1","0","32556","45305","45361","46182","47711","Arc55.png"
"6.4.2","Cannonball Task","1","2021-08-30","09:55:09","begin_round","mainloop","ODDBALL","ODDBALL","ORANGE","0.8599999999999999867","5","2","18.7749999999999985789","0","1","0","0","1","76.9231160409048868587","76.5576139164072060339","211.1593045083443769272","209.297267126081663946","810","2","3","3.5","266.1593045083443485055","156.1593045083443769272","5","1.8620373822627129812","1.2600746747550033433","55","1","0","32556","51175","45361","46182","47711","Arc55.png"
"6.4.2","Cannonball Task","1","2021-08-30","09:55:09","begin_round","placeshield_mouse","ODDBALL","ODDBALL","ORANGE","0.8599999999999999867","5","2","18.7749999999999985789","0","1","0","0","1","76.9231160409048868587","76.5576139164072060339","1.1123996162977922708","211.1593045083443769272","905","2","3","3.5","56.112399616297793159","-53.887600383702206841","5","1.8620373822627129812","1.2600746747550033433","55","1","0","32556","51175","51230","46182","47711","Arc55.png"
"6.4.2","Cannonball Task","1","2021-08-30","09:55:09","begin_round","revealshield","ODDBALL","ODDBALL","ORANGE","0.8599999999999999867","5","2","18.7749999999999985789","0","1","0","0","1","76.9231160409048868587","76.5576139164072060339","1.1123996162977922708","211.1593045083443769272","905","2","3","3.5","21.112399616297793159","-18.887600383702206841","5","210.0469048920465979791","75.8107164246070936997","20","1","0","32556","51175","51230","52149","47711","Arc20.png"
"6.4.2","Cannonball Task","1","2021-08-30","09:55:09","begin_round","cannon_outcome","ODDBALL","ODDBALL","ORANGE","0.8599999999999999867","5","2","18.7749999999999985789","0","1","0","0","1","76.9231160409048868587","76.5576139164072060339","1.1123996162977922708","211.1593045083443769272","905","2","3","3.5","21.112399616297793159","-18.887600383702206841","5","210.0469048920465979791","75.8107164246070936997","20","1","0","32556","51175","51230","52149","53667","Arc20.png"
"6.4.2","Cannonball Task","1","2021-08-30","09:55:09","begin_round","mainloop","ODDBALL","ODDBALL","ORANGE","0.8599999999999999867","5","2","18.7749999999999985789","0","1","0","0","1","75.1424668906706187954","70.3081044044044745078","1.1123996162977922708","211.1593045083443769272","905","2","3","3.5","21.112399616297793159","-18.887600383702206841","5","210.0469048920465979791","75.8107164246070936997","20","1","0","32556","53984","51230","52149","53667","Arc20.png"
"6.4.2","Cannonball Task","1","2021-08-30","09:55:09","begin_round","placeshield_mouse","ODDBALL","ODDBALL","ORANGE","0.8599999999999999867","5","2","18.7749999999999985789","0","1","0","0","1","75.1424668906706187954","70.3081044044044745078","1.1123996162977922708","1.1123996162977922708","488","2","3","3.5","21.112399616297793159","-18.887600383702206841","5","210.0469048920465979791","75.8107164246070936997","20","1","0","32556","53984","54039","52149","53667","Arc20.png"
"6.4.2","Cannonball Task","1","2021-08-30","09:55:09","begin_round","revealshield","ODDBALL","ODDBALL","ORANGE","0.8599999999999999867","5","2","18.7749999999999985789","0","1","0","0","1","75.1424668906706187954","70.3081044044044745078","1.1123996162977922708","1.1123996162977922708","488","2","3","3.5","45.112399616297793159","-42.887600383702206841","5","0","74.0300672743728256364","44","1","0","32556","53984","54039","54534","53667","Arc44.png"
"6.4.2","Cannonball Task","1","2021-08-30","09:55:09","begin_round","cannon_outcome","ODDBALL","ODDBALL","ORANGE","0.8599999999999999867","5","2","18.7749999999999985789","0","1","0","0","1","75.1424668906706187954","70.3081044044044745078","1.1123996162977922708","1.1123996162977922708","488","2","3","3.5","45.112399616297793159","-42.887600383702206841","5","0","74.0300672743728256364","44","1","0","32556","53984","54039","54534","56050","Arc44.png"
"6.4.2","Cannonball Task","1","2021-08-30","09:55:09","begin_round","mainloop","ODDBALL","ODDBALL","ORANGE","0.8599999999999999867","5","2","18.7749999999999985789","0","1","0","0","1","73.883754291595451491","28.8285595090401898233","1.1123996162977922708","1.1123996162977922708","488","2","3","3.5","45.112399616297793159","-42.887600383702206841","5","0","74.0300672743728256364","44","1","0","32556","56366","54039","54534","56050","Arc44.png"
"6.4.2","Cannonball Task","1","2021-08-30","09:55:09","begin_round","placeshield_mouse","ODDBALL","ODDBALL","ORANGE","0.8599999999999999867","5","2","18.7749999999999985789","0","1","0","0","1","73.883754291595451491","28.8285595090401898233","41.3987218827765630635","1.1123996162977922708","598","2","3","3.5","85.3987218827765559581","-2.6012781172234369365","5","0","74.0300672743728256364","44","1","0","32556","56366","56420","54534","56050","Arc44.png"
"6.4.2","Cannonball Task","1","2021-08-30","09:55:09","begin_round","revealshield","ODDBALL","ODDBALL","ORANGE","0.8599999999999999867","5","2","18.7749999999999985789","0","1","0","0","1","73.883754291595451491","28.8285595090401898233","41.3987218827765630635","1.1123996162977922708","598","2","3","3.5","56.3987218827765630635","26.3987218827765630635","5","40.2863222664787699046","32.4850324088188884275","15","1","0","32556","56366","56420","57029","56050","Arc15.png"
"6.4.2","Cannonball Task","1","2021-08-30","09:55:09","begin_round","cannon_outcome","ODDBALL","ODDBALL","ORANGE","0.8599999999999999867","5","2","18.7749999999999985789","0","1","0","0","0","73.883754291595451491","28.8285595090401898233","41.3987218827765630635","1.1123996162977922708","598","2","4","3.5","56.3987218827765630635","26.3987218827765630635","6","40.2863222664787699046","32.4850324088188884275","15","1","0","32556","56366","56420","57029","58547","Arc15.png"
"6.4.2","Cannonball Task","1","2021-08-30","09:55:09","begin_round","Reminder","ODDBALL","ODDBALL","ORANGE","0.8599999999999999867","5","2","18.7749999999999985789","0","1","0","0","0","73.883754291595451491","28.8285595090401898233","41.3987218827765630635","1.1123996162977922708","598","2","4","3.5","56.3987218827765630635","26.3987218827765630635","6","40.2863222664787699046","32.4850324088188884275","15","1","0","32556","56366","56420","57029","58547","Arc15.png"
"6.4.2","Cannonball Task","1","2021-08-30","09:55:09","begin_round","mainloop","ODDBALL","ODDBALL","ORANGE","0.8599999999999999867","5","2","18.7749999999999985789","0","1","0","0","0","72.5253679791393608411","98.0343676262410923528","41.3987218827765630635","1.1123996162977922708","598","2","4","3.5","56.3987218827765630635","26.3987218827765630635","6","40.2863222664787699046","32.4850324088188884275","15","1","0","32556","60432","56420","57029","58547","Arc15.png"
"6.4.2","Cannonball Task","1","2021-08-30","09:55:09","begin_round","placeshield_mouse","ODDBALL","ODDBALL","ORANGE","0.8599999999999999867","5","2","18.7749999999999985789","0","1","0","0","0","72.5253679791393608411","98.0343676262410923528","1.3574658445306089227","41.3987218827765630635","766","2","4","3.5","16.3574658445306084786","-13.6425341554693915214","6","40.2863222664787699046","32.4850324088188884275","15","1","0","32556","60432","60488","57029","58547","Arc15.png"
"6.4.2","Cannonball Task","1","2021-08-30","09:55:09","begin_round","revealshield","ODDBALL","ODDBALL","ORANGE","0.8599999999999999867","5","2","18.7749999999999985789","0","1","0","0","0","72.5253679791393608411","98.0343676262410923528","1.3574658445306089227","41.3987218827765630635","766","2","4","3.5","22.3574658445306084786","-19.6425341554693915214","6","40.0412560382459545849","71.1679021346087523625","21","1","0","32556","60432","60488","61277","58547","Arc21.png"
"6.4.2","Cannonball Task","1","2021-08-30","09:55:09","begin_round","cannon_outcome","ODDBALL","ODDBALL","ORANGE","0.8599999999999999867","5","2","18.7749999999999985789","0","1","0","0","0","72.5253679791393608411","98.0343676262410923528","1.3574658445306089227","41.3987218827765630635","766","2","4","3.5","22.3574658445306084786","-19.6425341554693915214","6","40.0412560382459545849","71.1679021346087523625","21","1","0","32556","60432","60488","61277","62794","Arc21.png"
"6.4.2","Cannonball Task","1","2021-08-30","09:55:09","begin_round","Reminder","ODDBALL","ODDBALL","ORANGE","0.8599999999999999867","5","2","18.7749999999999985789","0","1","0","0","0","72.5253679791393608411","98.0343676262410923528","1.3574658445306089227","41.3987218827765630635","766","2","4","3.5","22.3574658445306084786","-19.6425341554693915214","6","40.0412560382459545849","71.1679021346087523625","21","1","0","32556","60432","60488","61277","62794","Arc21.png"
"6.4.2","Cannonball Task","1","2021-08-30","09:55:09","begin_round","mainloop","ODDBALL","ODDBALL","ORANGE","0.8599999999999999867","5","2","18.7749999999999985789","0","1","0","0","0","77.40381652200611029","105.103640795671353203","1.3574658445306089227","41.3987218827765630635","766","2","4","3.5","22.3574658445306084786","-19.6425341554693915214","6","40.0412560382459545849","71.1679021346087523625","21","1","0","32556","64840","60488","61277","62794","Arc21.png"
"6.4.2","Cannonball Task","1","2021-08-30","09:55:09","begin_round","placeshield_mouse","ODDBALL","ODDBALL","ORANGE","0.8599999999999999867","5","2","18.7749999999999985789","0","1","0","0","0","77.40381652200611029","105.103640795671353203","1.4179228314511307385","1.3574658445306089227","613","2","4","3.5","22.4179228314511291842","-19.5820771685488708158","6","40.0412560382459545849","71.1679021346087523625","21","1","0","32556","64840","64898","61277","62794","Arc21.png"
"6.4.2","Cannonball Task","1","2021-08-30","09:55:09","begin_round","revealshield","ODDBALL","ODDBALL","ORANGE","0.8599999999999999867","5","2","18.7749999999999985789","0","1","0","0","0","77.40381652200611029","105.103640795671353203","1.4179228314511307385","1.3574658445306089227","613","2","4","3.5","38.4179228314511291842","-35.5820771685488708158","6","0.0604569869205218158","75.9858936905549740004","37","1","0","32556","64840","64898","65527","62794","Arc37.png"
"6.4.2","Cannonball Task","1","2021-08-30","09:55:09","begin_round","cannon_outcome","ODDBALL","ODDBALL","ORANGE","0.8599999999999999867","5","2","18.7749999999999985789","0","1","0","0","0","77.40381652200611029","105.103640795671353203","1.4179228314511307385","1.3574658445306089227","613","2","4","3.5","38.4179228314511291842","-35.5820771685488708158","6","0.0604569869205218158","75.9858936905549740004","37","1","0","32556","64840","64898","65527","67045","Arc37.png"
"6.4.2","Cannonball Task","1","2021-08-30","09:55:09","begin_round","Reminder","ODDBALL","ODDBALL","ORANGE","0.8599999999999999867","5","2","18.7749999999999985789","0","1","0","0","0","77.40381652200611029","105.103640795671353203","1.4179228314511307385","1.3574658445306089227","613","2","4","3.5","38.4179228314511291842","-35.5820771685488708158","6","0.0604569869205218158","75.9858936905549740004","37","1","0","32556","64840","64898","65527","67045","Arc37.png"
"6.4.2","Cannonball Task","1","2021-08-30","09:55:09","begin_round","mainloop","ODDBALL","ODDBALL","ORANGE","0.8599999999999999867","5","2","18.7749999999999985789","0","1","0","0","0","74.77931492055411411","37.7536681642793467972","1.4179228314511307385","1.3574658445306089227","613","2","4","3.5","38.4179228314511291842","-35.5820771685488708158","6","0.0604569869205218158","75.9858936905549740004","37","1","0","32556","68661","64898","65527","67045","Arc37.png"
"6.4.2","Cannonball Task","1","2021-08-30","09:55:09","begin_round","placeshield_mouse","ODDBALL","ODDBALL","ORANGE","0.8599999999999999867","5","2","18.7749999999999985789","0","1","0","0","0","74.77931492055411411","37.7536681642793467972","62.6924964792614645148","1.4179228314511307385","1371","2","4","3.5","99.6924964792614645148","25.6924964792614645148","6","0.0604569869205218158","75.9858936905549740004","37","1","0","32556","68661","68715","65527","67045","Arc37.png"
"6.4.2","Cannonball Task","1","2021-08-30","09:55:09","begin_round","revealshield","ODDBALL","ODDBALL","ORANGE","0.8599999999999999867","5","2","18.7749999999999985789","0","1","0","0","0","74.77931492055411411","37.7536681642793467972","62.6924964792614645148","1.4179228314511307385","1371","2","4","3.5","120.6924964792614645148","4.6924964792614645148","6","61.2745736478103353306","12.0868184412926495952","58","1","0","32556","68661","68715","70103","67045","Arc58.png"
"6.4.2","Cannonball Task","1","2021-08-30","09:55:09","begin_round","cannon_outcome","ODDBALL","ODDBALL","ORANGE","0.8599999999999999867","5","2","18.7749999999999985789","0","1","0","0","1","74.77931492055411411","37.7536681642793467972","62.6924964792614645148","1.4179228314511307385","1371","3","4","3.5","120.6924964792614645148","4.6924964792614645148","5","61.2745736478103353306","12.0868184412926495952","58","1","0","32556","68661","68715","70103","71624","Arc58.png"
"6.4.2","Cannonball Task","1","2021-08-30","09:55:09","MainBlock","Phase_starts","ODDBALL","ODDBALL","ORANGE","0.8599999999999999867","6","2","18.7749999999999985789","1","0","0","0","1","294.2986024297537710481","37.7536681642793467972","62.6924964792614645148","1.4179228314511307385","1371","0","0","5","120.6924964792614645148","4.6924964792614645148","5","61.2745736478103353306","12.0868184412926495952","58","1.5","0","32556","68661","68715","70103","71624","Arc58.png"
"6.4.2","Cannonball Task","1","2021-08-30","09:55:09","MainBlock","mainloop","ODDBALL","ODDBALL","ORANGE","0.8599999999999999867","6","2","18.7749999999999985789","1","1","1","1","1","294.2986024297537710481","146.3697275580767893643","62.6924964792614645148","1.4179228314511307385","1371","0","0","5","120.6924964792614645148","4.6924964792614645148","5","61.2745736478103353306","12.0868184412926495952","58","1.5","0","32556","74459","68715","70103","71624","Arc58.png"
"6.4.2","Cannonball Task","1","2021-08-30","09:55:09","MainBlock","placeshield_mouse","ODDBALL","ODDBALL","ORANGE","0.8599999999999999867","6","2","18.7749999999999985789","1","1","1","1","1","294.2986024297537710481","146.3697275580767893643","357.8690471128949184276","62.6924964792614645148","720","0","0","5","415.8690471128949184276","299.8690471128949184276","5","61.2745736478103353306","12.0868184412926495952","58","1.5","0","32556","74459","74516","70103","71624","Arc58.png"
"6.4.2","Cannonball Task","1","2021-08-30","09:55:09","MainBlock","revealshield","ODDBALL","ODDBALL","ORANGE","0.8599999999999999867","6","2","18.7749999999999985789","1","1","1","1","1","294.2986024297537710481","146.3697275580767893643","357.8690471128949184276","62.6924964792614645148","720","0","0","5","375.8690471128949184276","339.8690471128949184276","5","295.176550633633439702","63.5704446831411473795","18","1.5","0","32556","74459","74516","75244","71624","Arc18.png"
"6.4.2","Cannonball Task","1","2021-08-30","09:55:09","MainBlock","cannon_outcome","ODDBALL","ODDBALL","ORANGE","0.8599999999999999867","6","2","18.7749999999999985789","1","1","1","1","1","294.2986024297537710481","146.3697275580767893643","357.8690471128949184276","62.6924964792614645148","720","0","0","5","375.8690471128949184276","339.8690471128949184276","5","295.176550633633439702","63.5704446831411473795","18","1.5","0","32556","74459","74516","75244","76761","Arc18.png"
"6.4.2","Cannonball Task","1","2021-08-30","09:55:09","MainBlock","mainloop","ODDBALL","ODDBALL","ORANGE","0.8599999999999999867","6","2","18.7749999999999985789","1","2","0","2","1","291.7188350902141564802","265.9075770189816694256","357.8690471128949184276","62.6924964792614645148","720","0","0","5","375.8690471128949184276","339.8690471128949184276","5","295.176550633633439702","63.5704446831411473795","18","1.5","0","32556","77076","74516","75244","76761","Arc18.png"
"6.4.2","Cannonball Task","1","2021-08-30","09:55:09","MainBlock","placeshield_mouse","ODDBALL","ODDBALL","ORANGE","0.8599999999999999867","6","2","18.7749999999999985789","1","2","0","2","1","291.7188350902141564802","265.9075770189816694256","357.8690471128949184276","357.8690471128949184276","213","0","0","5","375.8690471128949184276","339.8690471128949184276","5","295.176550633633439702","63.5704446831411473795","18","1.5","0","32556","77076","77131","75244","76761","Arc18.png"
"6.4.2","Cannonball Task","1","2021-08-30","09:55:09","MainBlock","revealshield","ODDBALL","ODDBALL","ORANGE","0.8599999999999999867","6","2","18.7749999999999985789","1","2","0","2","1","291.7188350902141564802","265.9075770189816694256","357.8690471128949184276","357.8690471128949184276","213","0","0","5","405.8690471128949184276","309.8690471128949184276","5","0","66.1502120226807619474","48","1.5","0","32556","77076","77131","77354","76761","Arc48.png"
"6.4.2","Cannonball Task","1","2021-08-30","09:55:09","MainBlock","cannon_outcome","ODDBALL","ODDBALL","ORANGE","0.8599999999999999867","6","2","18.7749999999999985789","1","2","0","2","1","291.7188350902141564802","265.9075770189816694256","357.8690471128949184276","357.8690471128949184276","213","0","0","5","405.8690471128949184276","309.8690471128949184276","5","0","66.1502120226807619474","48","1.5","0","32556","77076","77131","77354","78874","Arc48.png"
"6.4.2","Cannonball Task","1","2021-08-30","09:55:09","MainBlock","mainloop","ODDBALL","ODDBALL","ORANGE","0.8599999999999999867","6","2","18.7749999999999985789","1","3","0","3","1","292.6425433890662475278","264.0232782541116307584","357.8690471128949184276","357.8690471128949184276","213","0","0","5","405.8690471128949184276","309.8690471128949184276","5","0","66.1502120226807619474","48","1.5","0","32556","79194","77131","77354","78874","Arc48.png"
"6.4.2","Cannonball Task","1","2021-08-30","09:55:09","MainBlock","placeshield_mouse","ODDBALL","ODDBALL","ORANGE","0.8599999999999999867","6","2","18.7749999999999985789","1","3","0","3","1","292.6425433890662475278","264.0232782541116307584","358.1265069864002157374","357.8690471128949184276","432","0","0","5","406.1265069864002157374","310.1265069864002157374","5","0","66.1502120226807619474","48","1.5","0","32556","79194","79250","77354","78874","Arc48.png"
"6.4.2","Cannonball Task","1","2021-08-30","09:55:09","MainBlock","revealshield","ODDBALL","ODDBALL","ORANGE","0.8599999999999999867","6","2","18.7749999999999985789","1","3","0","3","1","292.6425433890662475278","264.0232782541116307584","358.1265069864002157374","357.8690471128949184276","432","0","0","5","369.1265069864002157374","347.1265069864002157374","5","0.2574598735052973097","65.4839635973339682096","11","1.5","0","32556","79194","79250","79690","78874","Arc11.png"
"6.4.2","Cannonball Task","1","2021-08-30","09:55:09","MainBlock","cannon_outcome","ODDBALL","ODDBALL","ORANGE","0.8599999999999999867","6","2","18.7749999999999985789","1","3","0","3","1","292.6425433890662475278","264.0232782541116307584","358.1265069864002157374","357.8690471128949184276","432","0","0","5","369.1265069864002157374","347.1265069864002157374","5","0.2574598735052973097","65.4839635973339682096","11","1.5","0","32556","79194","79250","79690","81208","Arc11.png"
"6.4.2","Cannonball Task","1","2021-08-30","09:55:09","MainBlock","mainloop","ODDBALL","ODDBALL","ORANGE","0.8599999999999999867","6","2","18.7749999999999985789","1","4","0","4","1","297.1952933183306413412","312.3480459871028074303","358.1265069864002157374","357.8690471128949184276","432","0","0","5","369.1265069864002157374","347.1265069864002157374","5","0.2574598735052973097","65.4839635973339682096","11","1.5","0","32556","81528","79250","79690","81208","Arc11.png"
"6.4.2","Cannonball Task","1","2021-08-30","09:55:09","MainBlock","placeshield_mouse","ODDBALL","ODDBALL","ORANGE","0.8599999999999999867","6","2","18.7749999999999985789","1","4","0","4","1","297.1952933183306413412","312.3480459871028074303","358.1265069864002157374","358.1265069864002157374","284","0","0","5","369.1265069864002157374","347.1265069864002157374","5","0.2574598735052973097","65.4839635973339682096","11","1.5","0","32556","81528","81583","79690","81208","Arc11.png"
"6.4.2","Cannonball Task","1","2021-08-30","09:55:09","MainBlock","revealshield","ODDBALL","ODDBALL","ORANGE","0.8599999999999999867","6","2","18.7749999999999985789","1","4","0","4","1","297.1952933183306413412","312.3480459871028074303","358.1265069864002157374","358.1265069864002157374","284","0","0","5","401.1265069864002157374","315.1265069864002157374","5","0","60.9312136680695743962","43","1.5","0","32556","81528","81583","81874","81208","Arc43.png"
"6.4.2","Cannonball Task","1","2021-08-30","09:55:09","MainBlock","cannon_outcome","ODDBALL","ODDBALL","ORANGE","0.8599999999999999867","6","2","18.7749999999999985789","1","4","0","4","1","297.1952933183306413412","312.3480459871028074303","358.1265069864002157374","358.1265069864002157374","284","0","0","5","401.1265069864002157374","315.1265069864002157374","5","0","60.9312136680695743962","43","1.5","0","32556","81528","81583","81874","83391","Arc43.png"
"6.4.2","Cannonball Task","1","2021-08-30","09:55:09","MainBlock","mainloop","ODDBALL","ODDBALL","ORANGE","0.8599999999999999867","6","2","18.7749999999999985789","1","5","0","5","1","300.5237764055534057661","321.0603950301934332856","358.1265069864002157374","358.1265069864002157374","284","0","0","5","401.1265069864002157374","315.1265069864002157374","5","0","60.9312136680695743962","43","1.5","0","32556","83715","81583","81874","83391","Arc43.png"
"6.4.2","Cannonball Task","1","2021-08-30","09:55:09","MainBlock","placeshield_mouse","ODDBALL","ODDBALL","ORANGE","0.8599999999999999867","6","2","18.7749999999999985789","1","5","0","5","1","300.5237764055534057661","321.0603950301934332856","358.1265069864002157374","358.1265069864002157374","362","0","0","5","401.1265069864002157374","315.1265069864002157374","5","0","60.9312136680695743962","43","1.5","0","32556","83715","83772","81874","83391","Arc43.png"
"6.4.2","Cannonball Task","1","2021-08-30","09:55:09","MainBlock","revealshield","ODDBALL","ODDBALL","ORANGE","0.8599999999999999867","6","2","18.7749999999999985789","1","5","0","5","1","300.5237764055534057661","321.0603950301934332856","358.1265069864002157374","358.1265069864002157374","362","0","0","5","405.1265069864002157374","311.1265069864002157374","5","0","57.6027305808468099713","47","1.5","0","32556","83715","83772","84139","83391","Arc47.png"
"6.4.2","Cannonball Task","1","2021-08-30","09:55:09","MainBlock","cannon_outcome","ODDBALL","ODDBALL","ORANGE","0.8599999999999999867","6","2","18.7749999999999985789","1","5","0","5","1","300.5237764055534057661","321.0603950301934332856","358.1265069864002157374","358.1265069864002157374","362","0","0","5","405.1265069864002157374","311.1265069864002157374","5","0","57.6027305808468099713","47","1.5","0","32556","83715","83772","84139","85657","Arc47.png"
"6.4.2","Cannonball Task","1","2021-08-30","09:55:09","MainBlock","mainloop","ODDBALL","ODDBALL","ORANGE","0.8599999999999999867","6","2","18.7749999999999985789","1","6","0","6","1","304.2852509106544403039","294.9296824800436525038","358.1265069864002157374","358.1265069864002157374","362","0","0","5","405.1265069864002157374","311.1265069864002157374","5","0","57.6027305808468099713","47","1.5","0","32556","85981","83772","84139","85657","Arc47.png"
"6.4.2","Cannonball Task","1","2021-08-30","09:55:09","MainBlock","placeshield_mouse","ODDBALL","ODDBALL","ORANGE","0.8599999999999999867","6","2","18.7749999999999985789","1","6","0","6","1","304.2852509106544403039","294.9296824800436525038","358.1177175569890778206","358.1265069864002157374","431","0","0","5","405.1177175569890778206","311.1177175569890778206","5","0","57.6027305808468099713","47","1.5","0","32556","85981","86036","84139","85657","Arc47.png"
"6.4.2","Cannonball Task","1","2021-08-30","09:55:09","MainBlock","revealshield","ODDBALL","ODDBALL","ORANGE","0.8599999999999999867","6","2","18.7749999999999985789","1","6","0","6","1","304.2852509106544403039","294.9296824800436525038","358.1177175569890778206","358.1265069864002157374","431","0","0","5","394.1177175569890778206","322.1177175569890778206","5","0.0087894294111379168","53.8324666463346375167","36","1.5","0","32556","85981","86036","86474","85657","Arc36.png"
"6.4.2","Cannonball Task","1","2021-08-30","09:55:09","MainBlock","cannon_outcome","ODDBALL","ODDBALL","ORANGE","0.8599999999999999867","6","2","18.7749999999999985789","1","6","0","6","1","304.2852509106544403039","294.9296824800436525038","358.1177175569890778206","358.1265069864002157374","431","0","0","5","394.1177175569890778206","322.1177175569890778206","5","0.0087894294111379168","53.8324666463346375167","36","1.5","0","32556","85981","86036","86474","87995","Arc36.png"
"6.4.2","Cannonball Task","1","2021-08-30","09:55:09","MainBlock","mainloop","ODDBALL","ODDBALL","ORANGE","0.8599999999999999867","6","2","18.7749999999999985789","1","7","0","7","1","300.4718297237949968803","282.3268179749845785409","358.1177175569890778206","358.1265069864002157374","431","0","0","5","394.1177175569890778206","322.1177175569890778206","5","0.0087894294111379168","53.8324666463346375167","36","1.5","0","32556","88315","86036","86474","87995","Arc36.png"
"6.4.2","Cannonball Task","1","2021-08-30","09:55:09","MainBlock","placeshield_mouse","ODDBALL","ODDBALL","ORANGE","0.8599999999999999867","6","2","18.7749999999999985789","1","7","0","7","1","300.4718297237949968803","282.3268179749845785409","358.1177175569890778206","358.1177175569890778206","374","0","0","5","394.1177175569890778206","322.1177175569890778206","5","0.0087894294111379168","53.8324666463346375167","36","1.5","0","32556","88315","88370","86474","87995","Arc36.png"
"6.4.2","Cannonball Task","1","2021-08-30","09:55:09","MainBlock","revealshield","ODDBALL","ODDBALL","ORANGE","0.8599999999999999867","6","2","18.7749999999999985789","1","7","0","7","1","300.4718297237949968803","282.3268179749845785409","358.1177175569890778206","358.1177175569890778206","374","0","0","5","375.1177175569890778206","341.1177175569890778206","5","0","57.6458878331940809403","17","1.5","0","32556","88315","88370","88754","87995","Arc17.png"
"6.4.2","Cannonball Task","1","2021-08-30","09:55:09","MainBlock","cannon_outcome","ODDBALL","ODDBALL","ORANGE","0.8599999999999999867","6","2","18.7749999999999985789","1","7","0","7","1","300.4718297237949968803","282.3268179749845785409","358.1177175569890778206","358.1177175569890778206","374","0","0","5","375.1177175569890778206","341.1177175569890778206","5","0","57.6458878331940809403","17","1.5","0","32556","88315","88370","88754","90270","Arc17.png"
"6.4.2","Cannonball Task","1","2021-08-30","09:55:09","MainBlock","mainloop","ODDBALL","ODDBALL","ORANGE","0.8599999999999999867","6","2","18.7749999999999985789","1","8","0","8","1","309.171126252953229141","313.3251398449854150385","358.1177175569890778206","358.1177175569890778206","374","0","0","5","375.1177175569890778206","341.1177175569890778206","5","0","57.6458878331940809403","17","1.5","0","32556","90583","88370","88754","90270","Arc17.png"
"6.4.2","Cannonball Task","1","2021-08-30","09:55:09","MainBlock","placeshield_mouse","ODDBALL","ODDBALL","ORANGE","0.8599999999999999867","6","2","18.7749999999999985789","1","8","0","8","1","309.171126252953229141","313.3251398449854150385","358.1088452983146339648","358.1177175569890778206","452","0","0","5","375.1088452983146339648","341.1088452983146339648","5","0","57.6458878331940809403","17","1.5","0","32556","90583","90637","88754","90270","Arc17.png"
"6.4.2","Cannonball Task","1","2021-08-30","09:55:09","MainBlock","revealshield","ODDBALL","ODDBALL","ORANGE","0.8599999999999999867","6","2","18.7749999999999985789","1","8","0","8","1","309.171126252953229141","313.3251398449854150385","358.1088452983146339648","358.1177175569890778206","452","0","0","5","410.1088452983146339648","306.1088452983146339648","5","0.0088722586744438559","48.9377190453614048238","52","1.5","0","32556","90583","90637","91098","90270","Arc52.png"
"6.4.2","Cannonball Task","1","2021-08-30","09:55:09","MainBlock","cannon_outcome","ODDBALL","ODDBALL","ORANGE","0.8599999999999999867","6","2","18.7749999999999985789","1","8","0","8","1","309.171126252953229141","313.3251398449854150385","358.1088452983146339648","358.1177175569890778206","452","0","0","5","410.1088452983146339648","306.1088452983146339648","5","0.0088722586744438559","48.9377190453614048238","52","1.5","0","32556","90583","90637","91098","92614","Arc52.png"
"6.4.2","Cannonball Task","1","2021-08-30","09:55:09","MainBlock","mainloop","ODDBALL","ODDBALL","ORANGE","0.8599999999999999867","6","2","18.7749999999999985789","1","9","0","9","1","308.5076181572428595246","289.7792781672318938035","358.1088452983146339648","358.1177175569890778206","452","0","0","5","410.1088452983146339648","306.1088452983146339648","5","0.0088722586744438559","48.9377190453614048238","52","1.5","0","32556","92934","90637","91098","92614","Arc52.png"
"6.4.2","Cannonball Task","1","2021-08-30","09:55:09","MainBlock","placeshield_mouse","ODDBALL","ODDBALL","ORANGE","0.8599999999999999867","6","2","18.7749999999999985789","1","9","0","9","1","308.5076181572428595246","289.7792781672318938035","358.1088452983146339648","358.1088452983146339648","474","0","0","5","410.1088452983146339648","306.1088452983146339648","5","0.0088722586744438559","48.9377190453614048238","52","1.5","0","32556","92934","92988","91098","92614","Arc52.png"
"6.4.2","Cannonball Task","1","2021-08-30","09:55:09","MainBlock","revealshield","ODDBALL","ODDBALL","ORANGE","0.8599999999999999867","6","2","18.7749999999999985789","1","9","0","9","1","308.5076181572428595246","289.7792781672318938035","358.1088452983146339648","358.1088452983146339648","474","0","0","5","403.1088452983146339648","313.1088452983146339648","5","0","49.6012271410717744402","45","1.5","0","32556","92934","92988","93471","92614","Arc45.png"
"6.4.2","Cannonball Task","1","2021-08-30","09:55:09","MainBlock","cannon_outcome","ODDBALL","ODDBALL","ORANGE","0.8599999999999999867","6","2","18.7749999999999985789","1","9","0","9","1","308.5076181572428595246","289.7792781672318938035","358.1088452983146339648","358.1088452983146339648","474","0","0","5","403.1088452983146339648","313.1088452983146339648","5","0","49.6012271410717744402","45","1.5","0","32556","92934","92988","93471","94987","Arc45.png"
"6.4.2","Cannonball Task","1","2021-08-30","09:55:09","MainBlock","mainloop","ODDBALL","ODDBALL","ORANGE","0.8599999999999999867","6","2","18.7749999999999985789","1","10","0","10","1","307.1759075433586758663","319.9285824348838218611","358.1088452983146339648","358.1088452983146339648","474","0","0","5","403.1088452983146339648","313.1088452983146339648","5","0","49.6012271410717744402","45","1.5","0","32556","95300","92988","93471","94987","Arc45.png"
"6.4.2","Cannonball Task","1","2021-08-30","09:55:09","MainBlock","placeshield_mouse","ODDBALL","ODDBALL","ORANGE","0.8599999999999999867","6","2","18.7749999999999985789","1","10","0","10","1","307.1759075433586758663","319.9285824348838218611","0.540510187130666564","358.1088452983146339648","287","0","0","5","45.5405101871306641215","-44.4594898128693358785","5","0","49.6012271410717744402","45","1.5","0","32556","95300","95354","93471","94987","Arc45.png"
"6.4.2","Cannonball Task","1","2021-08-30","09:55:09","MainBlock","revealshield","ODDBALL","ODDBALL","ORANGE","0.8599999999999999867","6","2","18.7749999999999985789","1","10","0","10","1","307.1759075433586758663","319.9285824348838218611","0.540510187130666564","358.1088452983146339648","287","0","0","5","49.5405101871306641215","-48.4594898128693358785","5","357.5683351111839556324","306.635397356227997534","49","1.5","0","32556","95300","95354","95649","94987","Arc49.png"
"6.4.2","Cannonball Task","1","2021-08-30","09:55:09","MainBlock","cannon_outcome","ODDBALL","ODDBALL","ORANGE","0.8599999999999999867","6","2","18.7749999999999985789","1","10","0","10","1","307.1759075433586758663","319.9285824348838218611","0.540510187130666564","358.1088452983146339648","287","0","0","5","49.5405101871306641215","-48.4594898128693358785","5","357.5683351111839556324","306.635397356227997534","49","1.5","0","32556","95300","95354","95649","97167","Arc49.png"
"6.4.2","Cannonball Task","1","2021-08-30","09:55:09","MainBlock","mainloop","ODDBALL","ODDBALL","ORANGE","0.8599999999999999867","6","2","18.7749999999999985789","1","11","0","11","1","304.3415332805553248363","298.6885441034161203788","0.540510187130666564","358.1088452983146339648","287","0","0","5","49.5405101871306641215","-48.4594898128693358785","5","357.5683351111839556324","306.635397356227997534","49","1.5","0","32556","97484","95354","95649","97167","Arc49.png"
"6.4.2","Cannonball Task","1","2021-08-30","09:55:09","MainBlock","placeshield_mouse","ODDBALL","ODDBALL","ORANGE","0.8599999999999999867","6","2","18.7749999999999985789","1","11","0","11","1","304.3415332805553248363","298.6885441034161203788","4.0472019151221800826","0.540510187130666564","456","0","0","5","53.0472019151221800826","-44.9527980848778199174","5","357.5683351111839556324","306.635397356227997534","49","1.5","0","32556","97484","97539","95649","97167","Arc49.png"
"6.4.2","Cannonball Task","1","2021-08-30","09:55:09","MainBlock","revealshield","ODDBALL","ODDBALL","ORANGE","0.8599999999999999867","6","2","18.7749999999999985789","1","11","0","11","1","304.3415332805553248363","298.6885441034161203788","4.0472019151221800826","0.540510187130666564","456","0","0","5","23.0472019151221800826","-14.9527980848778199174","5","3.5066917279915132966","300.2943313654331518592","19","1.5","0","32556","97484","97539","98008","97167","Arc19.png"
"6.4.2","Cannonball Task","1","2021-08-30","09:55:09","MainBlock","cannon_outcome","ODDBALL","ODDBALL","ORANGE","0.8599999999999999867","6","2","18.7749999999999985789","1","11","0","11","1","304.3415332805553248363","298.6885441034161203788","4.0472019151221800826","0.540510187130666564","456","0","0","5","23.0472019151221800826","-14.9527980848778199174","5","3.5066917279915132966","300.2943313654331518592","19","1.5","0","32556","97484","97539","98008","99524","Arc19.png"
"6.4.2","Cannonball Task","1","2021-08-30","09:55:09","MainBlock","mainloop","ODDBALL","ODDBALL","ORANGE","0.8599999999999999867","6","2","18.7749999999999985789","1","12","1","12","1","304.3415332805553248363","178.2315804944912827068","4.0472019151221800826","0.540510187130666564","456","0","0","5","23.0472019151221800826","-14.9527980848778199174","5","3.5066917279915132966","300.2943313654331518592","19","1.5","0","32556","99835","97539","98008","99524","Arc19.png"
"6.4.2","Cannonball Task","1","2021-08-30","09:55:09","MainBlock","placeshield_mouse","ODDBALL","ODDBALL","ORANGE","0.8599999999999999867","6","2","18.7749999999999985789","1","12","1","12","1","304.3415332805553248363","178.2315804944912827068","4.0472019151221800826","4.0472019151221800826","384","0","0","5","23.0472019151221800826","-14.9527980848778199174","5","3.5066917279915132966","300.2943313654331518592","19","1.5","0","32556","99835","99888","98008","99524","Arc19.png"
"6.4.2","Cannonball Task","1","2021-08-30","09:55:09","MainBlock","revealshield","ODDBALL","ODDBALL","ORANGE","0.8599999999999999867","6","2","18.7749999999999985789","1","12","1","12","1","304.3415332805553248363","178.2315804944912827068","4.0472019151221800826","4.0472019151221800826","384","0","0","5","35.0472019151221800826","-26.9527980848778199174","5","0","300.2943313654331518592","31","1.5","0","32556","99835","99888","100283","99524","Arc31.png"
"6.4.2","Cannonball Task","1","2021-08-30","09:55:09","MainBlock","cannon_outcome","ODDBALL","ODDBALL","ORANGE","0.8599999999999999867","6","2","18.7749999999999985789","1","12","1","12","1","304.3415332805553248363","178.2315804944912827068","4.0472019151221800826","4.0472019151221800826","384","0","0","5","35.0472019151221800826","-26.9527980848778199174","5","0","300.2943313654331518592","31","1.5","0","32556","99835","99888","100283","101800","Arc31.png"
"6.4.2","Cannonball Task","1","2021-08-30","09:55:09","MainBlock","mainloop","ODDBALL","ODDBALL","ORANGE","0.8599999999999999867","6","2","18.7749999999999985789","1","13","0","13","1","300.1636806112463773388","297.2854454608446417296","4.0472019151221800826","4.0472019151221800826","384","0","0","5","35.0472019151221800826","-26.9527980848778199174","5","0","300.2943313654331518592","31","1.5","0","32556","102124","99888","100283","101800","Arc31.png"
"6.4.2","Cannonball Task","1","2021-08-30","09:55:09","MainBlock","placeshield_mouse","ODDBALL","ODDBALL","ORANGE","0.8599999999999999867","6","2","18.7749999999999985789","1","13","0","13","1","300.1636806112463773388","297.2854454608446417296","4.0472019151221800826","4.0472019151221800826","256","0","0","5","35.0472019151221800826","-26.9527980848778199174","5","0","300.2943313654331518592","31","1.5","0","32556","102124","102184","100283","101800","Arc31.png"
"6.4.2","Cannonball Task","1","2021-08-30","09:55:09","MainBlock","revealshield","ODDBALL","ODDBALL","ORANGE","0.8599999999999999867","6","2","18.7749999999999985789","1","13","0","13","1","300.1636806112463773388","297.2854454608446417296","4.0472019151221800826","4.0472019151221800826","256","0","0","5","38.0472019151221800826","-29.9527980848778199174","5","0","296.1164786961242043617","34","1.5","0","32556","102124","102184","102455","101800","Arc34.png"
"6.4.2","Cannonball Task","1","2021-08-30","09:55:09","MainBlock","cannon_outcome","ODDBALL","ODDBALL","ORANGE","0.8599999999999999867","6","2","18.7749999999999985789","1","13","0","13","1","300.1636806112463773388","297.2854454608446417296","4.0472019151221800826","4.0472019151221800826","256","0","0","5","38.0472019151221800826","-29.9527980848778199174","5","0","296.1164786961242043617","34","1.5","0","32556","102124","102184","102455","103971","Arc34.png"
"6.4.2","Cannonball Task","1","2021-08-30","09:55:09","MainBlock","mainloop","ODDBALL","ODDBALL","ORANGE","0.8599999999999999867","6","2","18.7749999999999985789","1","14","1","14","1","300.1636806112463773388","97.3923702392243626491","4.0472019151221800826","4.0472019151221800826","256","0","0","5","38.0472019151221800826","-29.9527980848778199174","5","0","296.1164786961242043617","34","1.5","0","32556","104295","102184","102455","103971","Arc34.png"
"6.4.2","Cannonball Task","1","2021-08-30","09:55:09","MainBlock","placeshield_mouse","ODDBALL","ODDBALL","ORANGE","0.8599999999999999867","6","2","18.7749999999999985789","1","14","1","14","1","300.1636806112463773388","97.3923702392243626491","11.3639341352336327162","4.0472019151221800826","549","0","0","5","45.3639341352336344926","-22.6360658647663655074","5","0","296.1164786961242043617","34","1.5","0","32556","104295","104351","102455","103971","Arc34.png"
"6.4.2","Cannonball Task","1","2021-08-30","09:55:09","MainBlock","revealshield","ODDBALL","ODDBALL","ORANGE","0.8599999999999999867","6","2","18.7749999999999985789","1","14","1","14","1","300.1636806112463773388","97.3923702392243626491","11.3639341352336327162","4.0472019151221800826","549","0","0","5","44.3639341352336344926","-21.6360658647663655074","5","7.3167322201114526337","288.7997464760127286354","33","1.5","0","32556","104295","104351","104906","103971","Arc33.png"
"6.4.2","Cannonball Task","1","2021-08-30","09:55:09","MainBlock","cannon_outcome","ODDBALL","ODDBALL","ORANGE","0.8599999999999999867","6","2","18.7749999999999985789","1","14","1","14","1","300.1636806112463773388","97.3923702392243626491","11.3639341352336327162","4.0472019151221800826","549","0","0","5","44.3639341352336344926","-21.6360658647663655074","5","7.3167322201114526337","288.7997464760127286354","33","1.5","0","32556","104295","104351","104906","106424","Arc33.png"
"6.4.2","Cannonball Task","1","2021-08-30","09:55:09","MainBlock","mainloop","ODDBALL","ODDBALL","ORANGE","0.8599999999999999867","6","2","18.7749999999999985789","1","15","0","15","1","301.7517727688540958297","312.8153764343211378218","11.3639341352336327162","4.0472019151221800826","549","0","0","5","44.3639341352336344926","-21.6360658647663655074","5","7.3167322201114526337","288.7997464760127286354","33","1.5","0","32556","106744","104351","104906","106424","Arc33.png"
"6.4.2","Cannonball Task","1","2021-08-30","09:55:09","MainBlock","placeshield_mouse","ODDBALL","ODDBALL","ORANGE","0.8599999999999999867","6","2","18.7749999999999985789","1","15","0","15","1","301.7517727688540958297","312.8153764343211378218","16.2152932697241176641","11.3639341352336327162","475","0","0","5","49.2152932697241141113","-16.7847067302758823359","5","7.3167322201114526337","288.7997464760127286354","33","1.5","0","32556","106744","106799","104906","106424","Arc33.png"
"6.4.2","Cannonball Task","1","2021-08-30","09:55:09","MainBlock","revealshield","ODDBALL","ODDBALL","ORANGE","0.8599999999999999867","6","2","18.7749999999999985789","1","15","0","15","1","301.7517727688540958297","312.8153764343211378218","16.2152932697241176641","11.3639341352336327162","475","0","0","5","76.2152932697241141113","-43.7847067302758858887","5","4.8513591344904849478","285.5364794991299959293","60","1.5","0","32556","106744","106799","107283","106424","Arc60.png"
"6.4.2","Cannonball Task","1","2021-08-30","09:55:09","MainBlock","cannon_outcome","ODDBALL","ODDBALL","ORANGE","0.8599999999999999867","6","2","18.7749999999999985789","1","15","0","15","1","301.7517727688540958297","312.8153764343211378218","16.2152932697241176641","11.3639341352336327162","475","0","0","5","76.2152932697241141113","-43.7847067302758858887","5","4.8513591344904849478","285.5364794991299959293","60","1.5","0","32556","106744","106799","107283","108797","Arc60.png"
"6.4.2","Cannonball Task","1","2021-08-30","09:55:09","MainBlock","mainloop","ODDBALL","ODDBALL","ORANGE","0.8599999999999999867","6","2","18.7749999999999985789","1","16","0","16","1","301.7026181011243011199","289.5563381478857536422","16.2152932697241176641","11.3639341352336327162","475","0","0","5","76.2152932697241141113","-43.7847067302758858887","5","4.8513591344904849478","285.5364794991299959293","60","1.5","0","32556","109107","106799","107283","108797","Arc60.png"
"6.4.2","Cannonball Task","1","2021-08-30","09:55:09","MainBlock","placeshield_mouse","ODDBALL","ODDBALL","ORANGE","0.8599999999999999867","6","2","18.7749999999999985789","1","16","0","16","1","301.7026181011243011199","289.5563381478857536422","16.2152932697241176641","16.2152932697241176641","201","0","0","5","76.2152932697241141113","-43.7847067302758858887","5","4.8513591344904849478","285.5364794991299959293","60","1.5","0","32556","109107","109162","107283","108797","Arc60.png"
"6.4.2","Cannonball Task","1","2021-08-30","09:55:09","MainBlock","revealshield","ODDBALL","ODDBALL","ORANGE","0.8599999999999999867","6","2","18.7749999999999985789","1","16","0","16","1","301.7026181011243011199","289.5563381478857536422","16.2152932697241176641","16.2152932697241176641","201","0","0","5","39.2152932697241141113","-6.7847067302758823359","5","0","285.4873248314002012194","23","1.5","0","32556","109107","109162","109372","108797","Arc23.png"
"6.4.2","Cannonball Task","1","2021-08-30","09:55:09","MainBlock","cannon_outcome","ODDBALL","ODDBALL","ORANGE","0.8599999999999999867","6","2","18.7749999999999985789","1","16","0","16","0","301.7026181011243011199","289.5563381478857536422","16.2152932697241176641","16.2152932697241176641","201","0","1","5","39.2152932697241141113","-6.7847067302758823359","6","0","285.4873248314002012194","23","1.5","0","32556","109107","109162","109372","110888","Arc23.png"
"6.4.2","Cannonball Task","1","2021-08-30","09:55:09","MainBlock","mainloop","ODDBALL","ODDBALL","ORANGE","0.8599999999999999867","6","2","18.7749999999999985789","1","17","1","17","0","301.7026181011243011199","94.3249089211050772974","16.2152932697241176641","16.2152932697241176641","201","0","1","5","39.2152932697241141113","-6.7847067302758823359","6","0","285.4873248314002012194","23","1.5","0","32556","111210","109162","109372","110888","Arc23.png"
"6.4.2","Cannonball Task","1","2021-08-30","09:55:09","MainBlock","placeshield_mouse","ODDBALL","ODDBALL","ORANGE","0.8599999999999999867","6","2","18.7749999999999985789","1","17","1","17","0","301.7026181011243011199","94.3249089211050772974","30.141385552075345089","16.2152932697241176641","698","0","1","5","53.1413855520753486417","7.141385552075345089","6","0","285.4873248314002012194","23","1.5","0","32556","111210","111266","109372","110888","Arc23.png"
"6.4.2","Cannonball Task","1","2021-08-30","09:55:09","MainBlock","revealshield","ODDBALL","ODDBALL","ORANGE","0.8599999999999999867","6","2","18.7749999999999985789","1","17","1","17","0","301.7026181011243011199","94.3249089211050772974","30.141385552075345089","16.2152932697241176641","698","0","1","5","46.1413855520753486417","14.141385552075345089","6","13.9260922823512274249","271.5612325490489524782","16","1.5","0","32556","111210","111266","111969","110888","Arc16.png"
"6.4.2","Cannonball Task","1","2021-08-30","09:55:09","MainBlock","cannon_outcome","ODDBALL","ODDBALL","ORANGE","0.8599999999999999867","6","2","18.7749999999999985789","1","17","1","17","0","301.7026181011243011199","94.3249089211050772974","30.141385552075345089","16.2152932697241176641","698","0","2","5","46.1413855520753486417","14.141385552075345089","6","13.9260922823512274249","271.5612325490489524782","16","1.5","0","32556","111210","111266","111969","113488","Arc16.png"
"6.4.2","Cannonball Task","1","2021-08-30","09:55:09","MainBlock","mainloop","ODDBALL","ODDBALL","ORANGE","0.8599999999999999867","6","2","18.7749999999999985789","1","18","0","18","0","307.3740794471507342678","297.7686508603878223767","30.141385552075345089","16.2152932697241176641","698","0","2","5","46.1413855520753486417","14.141385552075345089","6","13.9260922823512274249","271.5612325490489524782","16","1.5","0","32556","113810","111266","111969","113488","Arc16.png"
"6.4.2","Cannonball Task","1","2021-08-30","09:55:09","MainBlock","placeshield_mouse","ODDBALL","ODDBALL","ORANGE","0.8599999999999999867","6","2","18.7749999999999985789","1","18","0","18","0","307.3740794471507342678","297.7686508603878223767","13.2886541347620195097","30.141385552075345089","439","0","2","5","29.2886541347620195097","-2.7113458652379804903","6","13.9260922823512274249","271.5612325490489524782","16","1.5","0","32556","113810","113866","111969","113488","Arc16.png"
"6.4.2","Cannonball Task","1","2021-08-30","09:55:09","MainBlock","revealshield","ODDBALL","ODDBALL","ORANGE","0.8599999999999999867","6","2","18.7749999999999985789","1","18","0","18","0","307.3740794471507342678","297.7686508603878223767","13.2886541347620195097","30.141385552075345089","439","0","2","5","66.2886541347620266151","-39.7113458652379804903","6","16.8527314173133255792","294.0854253123887360744","53","1.5","0","32556","113810","113866","114312","113488","Arc53.png"
"6.4.2","Cannonball Task","1","2021-08-30","09:55:09","MainBlock","cannon_outcome","ODDBALL","ODDBALL","ORANGE","0.8599999999999999867","6","2","18.7749999999999985789","1","18","0","18","0","307.3740794471507342678","297.7686508603878223767","13.2886541347620195097","30.141385552075345089","439","0","2","5","66.2886541347620266151","-39.7113458652379804903","6","16.8527314173133255792","294.0854253123887360744","53","1.5","0","32556","113810","113866","114312","115828","Arc53.png"
"6.4.2","Cannonball Task","1","2021-08-30","09:55:09","MainBlock","mainloop","ODDBALL","ODDBALL","ORANGE","0.8599999999999999867","6","2","18.7749999999999985789","1","19","1","19","0","307.3740794471507342678","197.8389023146216914029","13.2886541347620195097","30.141385552075345089","439","0","2","5","66.2886541347620266151","-39.7113458652379804903","6","16.8527314173133255792","294.0854253123887360744","53","1.5","0","32556","116144","113866","114312","115828","Arc53.png"
"6.4.2","Cannonball Task","1","2021-08-30","09:55:09","MainBlock","placeshield_mouse","ODDBALL","ODDBALL","ORANGE","0.8599999999999999867","6","2","18.7749999999999985789","1","19","1","19","0","307.3740794471507342678","197.8389023146216914029","1.7013546053261237034","13.2886541347620195097","337","0","2","5","54.7013546053261237034","-51.2986453946738762966","6","16.8527314173133255792","294.0854253123887360744","53","1.5","0","32556","116144","116198","114312","115828","Arc53.png"
"6.4.2","Cannonball Task","1","2021-08-30","09:55:09","MainBlock","revealshield","ODDBALL","ODDBALL","ORANGE","0.8599999999999999867","6","2","18.7749999999999985789","1","19","1","19","0","307.3740794471507342678","197.8389023146216914029","1.7013546053261237034","13.2886541347620195097","337","0","2","5","31.7013546053261237034","-28.2986453946738762966","6","11.5872995294358958063","305.6727248418246176698","30","1.5","0","32556","116144","116198","116544","115828","Arc30.png"
"6.4.2","Cannonball Task","1","2021-08-30","09:55:09","MainBlock","cannon_outcome","ODDBALL","ODDBALL","ORANGE","0.8599999999999999867","6","2","18.7749999999999985789","1","19","1","19","0","307.3740794471507342678","197.8389023146216914029","1.7013546053261237034","13.2886541347620195097","337","0","2","5","31.7013546053261237034","-28.2986453946738762966","6","11.5872995294358958063","305.6727248418246176698","30","1.5","0","32556","116144","116198","116544","118060","Arc30.png"
"6.4.2","Cannonball Task","1","2021-08-30","09:55:09","MainBlock","mainloop","ODDBALL","ODDBALL","ORANGE","0.8599999999999999867","6","2","18.7749999999999985789","1","20","0","20","0","307.6838844588784809275","302.1968949526184360366","1.7013546053261237034","13.2886541347620195097","337","0","2","5","31.7013546053261237034","-28.2986453946738762966","6","11.5872995294358958063","305.6727248418246176698","30","1.5","0","32556","118381","116198","116544","118060","Arc30.png"
"6.4.2","Cannonball Task","1","2021-08-30","09:55:09","MainBlock","placeshield_mouse","ODDBALL","ODDBALL","ORANGE","0.8599999999999999867","6","2","18.7749999999999985789","1","20","0","20","0","307.6838844588784809275","302.1968949526184360366","355.2363583092738394953","1.7013546053261237034","349","0","2","5","385.2363583092738394953","325.2363583092738394953","6","11.5872995294358958063","305.6727248418246176698","30","1.5","0","32556","118381","118436","116544","118060","Arc30.png"
"6.4.2","Cannonball Task","1","2021-08-30","09:55:09","MainBlock","revealshield","ODDBALL","ODDBALL","ORANGE","0.8599999999999999867","6","2","18.7749999999999985789","1","20","0","20","0","307.6838844588784809275","302.1968949526184360366","355.2363583092738394953","1.7013546053261237034","349","0","2","5","363.2363583092738394953","347.2363583092738394953","6","353.5350037039477228973","47.5524738503953585678","8","1.5","0","32556","118381","118436","118792","118060","Arc8.png"
"6.4.2","Cannonball Task","1","2021-08-30","09:55:09","MainBlock","cannon_outcome","ODDBALL","ODDBALL","ORANGE","0.8599999999999999867","6","2","18.7749999999999985789","1","20","0","20","0","307.6838844588784809275","302.1968949526184360366","355.2363583092738394953","1.7013546053261237034","349","0","3","5","363.2363583092738394953","347.2363583092738394953","6","353.5350037039477228973","47.5524738503953585678","8","1.5","0","32556","118381","118436","118792","120309","Arc8.png"
"6.4.2","Cannonball Task","1","2021-08-30","09:55:09","MainBlock","mainloop","ODDBALL","ODDBALL","ORANGE","0.8599999999999999867","6","2","18.7749999999999985789","1","21","0","21","0","310.8340320296237564435","299.2634233770630771687","355.2363583092738394953","1.7013546053261237034","349","0","3","5","363.2363583092738394953","347.2363583092738394953","6","353.5350037039477228973","47.5524738503953585678","8","1.5","0","32556","120630","118436","118792","120309","Arc8.png"
"6.4.2","Cannonball Task","1","2021-08-30","09:55:09","MainBlock","placeshield_mouse","ODDBALL","ODDBALL","ORANGE","0.8599999999999999867","6","2","18.7749999999999985789","1","21","0","21","0","310.8340320296237564435","299.2634233770630771687","325.5207843138743442069","355.2363583092738394953","399","0","3","5","333.5207843138743442069","317.5207843138743442069","6","353.5350037039477228973","47.5524738503953585678","8","1.5","0","32556","120630","120689","118792","120309","Arc8.png"
"6.4.2","Cannonball Task","1","2021-08-30","09:55:09","MainBlock","revealshield","ODDBALL","ODDBALL","ORANGE","0.8599999999999999867","6","2","18.7749999999999985789","1","21","0","21","0","310.8340320296237564435","299.2634233770630771687","325.5207843138743442069","355.2363583092738394953","399","0","3","5","381.5207843138743442069","269.5207843138743442069","6","29.7155739953994952884","14.6867522842505877634","56","1.5","0","32556","120630","120689","121112","120309","Arc56.png"
"6.4.2","Cannonball Task","1","2021-08-30","09:55:09","MainBlock","cannon_outcome","ODDBALL","ODDBALL","ORANGE","0.8599999999999999867","6","2","18.7749999999999985789","1","21","0","21","1","310.8340320296237564435","299.2634233770630771687","325.5207843138743442069","355.2363583092738394953","399","1","3","5","381.5207843138743442069","269.5207843138743442069","5","29.7155739953994952884","14.6867522842505877634","56","1.5","0","32556","120630","120689","121112","122631","Arc56.png"
"6.4.2","Cannonball Task","1","2021-08-30","09:55:09","MainBlock","mainloop","ODDBALL","ODDBALL","ORANGE","0.8599999999999999867","6","2","18.7749999999999985789","1","22","0","22","1","309.279434443796958476","350.1183831868183915503","325.5207843138743442069","355.2363583092738394953","399","1","3","5","381.5207843138743442069","269.5207843138743442069","5","29.7155739953994952884","14.6867522842505877634","56","1.5","0","32556","122949","120689","121112","122631","Arc56.png"
"6.4.2","Cannonball Task","1","2021-08-30","09:55:09","MainBlock","placeshield_mouse","ODDBALL","ODDBALL","ORANGE","0.8599999999999999867","6","2","18.7749999999999985789","1","22","0","22","1","309.279434443796958476","350.1183831868183915503","311.0090869015702423894","325.5207843138743442069","363","1","3","5","367.0090869015702423894","255.0090869015702423894","5","29.7155739953994952884","14.6867522842505877634","56","1.5","0","32556","122949","123003","121112","122631","Arc56.png"
"6.4.2","Cannonball Task","1","2021-08-30","09:55:09","MainBlock","revealshield","ODDBALL","ODDBALL","ORANGE","0.8599999999999999867","6","2","18.7749999999999985789","1","22","0","22","1","309.279434443796958476","350.1183831868183915503","311.0090869015702423894","325.5207843138743442069","363","1","3","5","349.0090869015702423894","273.0090869015702423894","5","14.5116974123041018174","1.7296524577732839134","38","1.5","0","32556","122949","123003","123375","122631","Arc38.png"
"6.4.2","Cannonball Task","1","2021-08-30","09:55:09","MainBlock","cannon_outcome","ODDBALL","ODDBALL","ORANGE","0.8599999999999999867","6","2","18.7749999999999985789","1","22","0","22","0","309.279434443796958476","350.1183831868183915503","311.0090869015702423894","325.5207843138743442069","363","1","4","5","349.0090869015702423894","273.0090869015702423894","6","14.5116974123041018174","1.7296524577732839134","38","1.5","0","32556","122949","123003","123375","124894","Arc38.png"
"6.4.2","Cannonball Task","1","2021-08-30","09:55:09","MainBlock","mainloop","ODDBALL","ODDBALL","ORANGE","0.8599999999999999867","6","2","18.7749999999999985789","1","23","0","23","0","310.0289901478762999432","328.9216193837097534924","311.0090869015702423894","325.5207843138743442069","363","1","4","5","349.0090869015702423894","273.0090869015702423894","6","14.5116974123041018174","1.7296524577732839134","38","1.5","0","32556","125215","123003","123375","124894","Arc38.png"
"6.4.2","Cannonball Task","1","2021-08-30","09:55:09","MainBlock","placeshield_mouse","ODDBALL","ODDBALL","ORANGE","0.8599999999999999867","6","2","18.7749999999999985789","1","23","0","23","0","310.0289901478762999432","328.9216193837097534924","346.1631609921181507161","311.0090869015702423894","164","1","4","5","384.1631609921181507161","308.1631609921181507161","6","14.5116974123041018174","1.7296524577732839134","38","1.5","0","32556","125215","125271","123375","124894","Arc38.png"
"6.4.2","Cannonball Task","1","2021-08-30","09:55:09","MainBlock","revealshield","ODDBALL","ODDBALL","ORANGE","0.8599999999999999867","6","2","18.7749999999999985789","1","23","0","23","0","310.0289901478762999432","328.9216193837097534924","346.1631609921181507161","311.0090869015702423894","164","1","4","5","358.1631609921181507161","334.1631609921181507161","6","35.1540740905479083267","36.134170844241850773","12","1.5","0","32556","125215","125271","125442","124894","Arc12.png"
"6.4.2","Cannonball Task","1","2021-08-30","09:55:09","MainBlock","cannon_outcome","ODDBALL","ODDBALL","ORANGE","0.8599999999999999867","6","2","18.7749999999999985789","1","23","0","23","0","310.0289901478762999432","328.9216193837097534924","346.1631609921181507161","311.0090869015702423894","164","1","5","5","358.1631609921181507161","334.1631609921181507161","6","35.1540740905479083267","36.134170844241850773","12","1.5","0","32556","125215","125271","125442","126963","Arc12.png"
"6.4.2","Cannonball Task","1","2021-08-30","09:55:09","MainBlock","mainloop","ODDBALL","ODDBALL","ORANGE","0.8599999999999999867","6","2","18.7749999999999985789","1","24","0","24","0","310.5895082974606111748","284.586907300648420005","346.1631609921181507161","311.0090869015702423894","164","1","5","5","358.1631609921181507161","334.1631609921181507161","6","35.1540740905479083267","36.134170844241850773","12","1.5","0","32556","127283","125271","125442","126963","Arc12.png"
"6.4.2","Cannonball Task","1","2021-08-30","09:55:09","MainBlock","placeshield_mouse","ODDBALL","ODDBALL","ORANGE","0.8599999999999999867","6","2","18.7749999999999985789","1","24","0","24","0","310.5895082974606111748","284.586907300648420005","358.0817196748531614503","346.1631609921181507161","721","1","5","5","370.0817196748531614503","346.0817196748531614503","6","35.1540740905479083267","36.134170844241850773","12","1.5","0","32556","127283","127339","125442","126963","Arc12.png"
"6.4.2","Cannonball Task","1","2021-08-30","09:55:09","MainBlock","revealshield","ODDBALL","ODDBALL","ORANGE","0.8599999999999999867","6","2","18.7749999999999985789","1","24","0","24","0","310.5895082974606111748","284.586907300648420005","358.0817196748531614503","346.1631609921181507161","721","1","5","5","412.0817196748531614503","304.0817196748531614503","6","11.9185586827350107342","47.4922113773925502755","54","1.5","0","32556","127283","127339","128069","126963","Arc54.png"
"6.4.2","Cannonball Task","1","2021-08-30","09:55:09","MainBlock","cannon_outcome","ODDBALL","ODDBALL","ORANGE","0.8599999999999999867","6","2","18.7749999999999985789","1","24","0","24","0","310.5895082974606111748","284.586907300648420005","358.0817196748531614503","346.1631609921181507161","721","1","5","5","412.0817196748531614503","304.0817196748531614503","6","11.9185586827350107342","47.4922113773925502755","54","1.5","0","32556","127283","127339","128069","129585","Arc54.png"
"6.4.2","Cannonball Task","1","2021-08-30","09:55:09","MainBlock","mainloop","ODDBALL","ODDBALL","ORANGE","0.8599999999999999867","6","2","18.7749999999999985789","1","25","0","25","0","316.6673228386267169299","348.8878138476718504535","358.0817196748531614503","346.1631609921181507161","721","1","5","5","412.0817196748531614503","304.0817196748531614503","6","11.9185586827350107342","47.4922113773925502755","54","1.5","0","32556","129901","127339","128069","129585","Arc54.png"
"6.4.2","Cannonball Task","1","2021-08-30","09:55:09","MainBlock","placeshield_mouse","ODDBALL","ODDBALL","ORANGE","0.8599999999999999867","6","2","18.7749999999999985789","1","25","0","25","0","316.6673228386267169299","348.8878138476718504535","4.7405105738911768043","358.0817196748531614503","234","1","5","5","58.7405105738911785807","-49.2594894261088214193","6","11.9185586827350107342","47.4922113773925502755","54","1.5","0","32556","129901","129955","128069","129585","Arc54.png"
"6.4.2","Cannonball Task","1","2021-08-30","09:55:09","MainBlock","revealshield","ODDBALL","ODDBALL","ORANGE","0.8599999999999999867","6","2","18.7749999999999985789","1","25","0","25","0","316.6673228386267169299","348.8878138476718504535","4.7405105738911768043","358.0817196748531614503","234","1","5","5","13.7405105738911768043","-4.2594894261088231957","6","353.3412091009619757642","311.9268122647355312438","9","1.5","0","32556","129901","129955","130197","129585","Arc9.png"
"6.4.2","Cannonball Task","1","2021-08-30","09:55:09","MainBlock","cannon_outcome","ODDBALL","ODDBALL","ORANGE","0.8599999999999999867","6","2","18.7749999999999985789","1","25","0","25","0","316.6673228386267169299","348.8878138476718504535","4.7405105738911768043","358.0817196748531614503","234","1","6","5","13.7405105738911768043","-4.2594894261088231957","6","353.3412091009619757642","311.9268122647355312438","9","1.5","0","32556","129901","129955","130197","131716","Arc9.png"
"6.4.2","Cannonball Task","1","2021-08-30","09:55:09","MainBlock","mainloop","ODDBALL","ODDBALL","ORANGE","0.8599999999999999867","6","2","18.7749999999999985789","1","26","0","26","0","315.0840850573165425885","309.1255928107675572392","4.7405105738911768043","358.0817196748531614503","234","1","6","5","13.7405105738911768043","-4.2594894261088231957","6","353.3412091009619757642","311.9268122647355312438","9","1.5","0","32556","132035","129955","130197","131716","Arc9.png"
"6.4.2","Cannonball Task","1","2021-08-30","09:55:09","MainBlock","placeshield_mouse","ODDBALL","ODDBALL","ORANGE","0.8599999999999999867","6","2","18.7749999999999985789","1","26","0","26","0","315.0840850573165425885","309.1255928107675572392","358.8929729543191911034","4.7405105738911768043","145","1","6","5","367.8929729543191911034","349.8929729543191911034","6","353.3412091009619757642","311.9268122647355312438","9","1.5","0","32556","132035","132093","130197","131716","Arc9.png"
"6.4.2","Cannonball Task","1","2021-08-30","09:55:09","MainBlock","revealshield","ODDBALL","ODDBALL","ORANGE","0.8599999999999999867","6","2","18.7749999999999985789","1","26","0","26","0","315.0840850573165425885","309.1255928107675572392","358.8929729543191911034","4.7405105738911768043","145","1","6","5","387.8929729543191911034","329.8929729543191911034","6","354.1524623804280054173","43.8088878970026485149","29","1.5","0","32556","132035","132093","132263","131716","Arc29.png"
"6.4.2","Cannonball Task","1","2021-08-30","09:55:09","MainBlock","cannon_outcome","ODDBALL","ODDBALL","ORANGE","0.8599999999999999867","6","2","18.7749999999999985789","1","26","0","26","0","315.0840850573165425885","309.1255928107675572392","358.8929729543191911034","4.7405105738911768043","145","1","6","5","387.8929729543191911034","329.8929729543191911034","6","354.1524623804280054173","43.8088878970026485149","29","1.5","0","32556","132035","132093","132263","133781","Arc29.png"
"6.4.2","Cannonball Task","1","2021-08-30","09:55:09","MainBlock","mainloop","ODDBALL","ODDBALL","ORANGE","0.8599999999999999867","6","2","18.7749999999999985789","1","27","0","27","0","310.3634876864163061327","331.8721608607949065117","358.8929729543191911034","4.7405105738911768043","145","1","6","5","387.8929729543191911034","329.8929729543191911034","6","354.1524623804280054173","43.8088878970026485149","29","1.5","0","32556","134108","132093","132263","133781","Arc29.png"
"6.4.2","Cannonball Task","1","2021-08-30","09:55:09","MainBlock","placeshield_mouse","ODDBALL","ODDBALL","ORANGE","0.8599999999999999867","6","2","18.7749999999999985789","1","27","0","27","0","310.3634876864163061327","331.8721608607949065117","306.9829069263446967852","358.8929729543191911034","204","1","6","5","335.9829069263446967852","277.9829069263446967852","6","354.1524623804280054173","43.8088878970026485149","29","1.5","0","32556","134108","134163","132263","133781","Arc29.png"
"6.4.2","Cannonball Task","1","2021-08-30","09:55:09","MainBlock","revealshield","ODDBALL","ODDBALL","ORANGE","0.8599999999999999867","6","2","18.7749999999999985789","1","27","0","27","0","310.3634876864163061327","331.8721608607949065117","306.9829069263446967852","358.8929729543191911034","204","1","6","5","365.9829069263446967852","247.9829069263446967852","6","51.9100660279744943182","3.3805807600716093475","59","1.5","0","32556","134108","134163","134375","133781","Arc59.png"
"6.4.2","Cannonball Task","1","2021-08-30","09:55:09","MainBlock","cannon_outcome","ODDBALL","ODDBALL","ORANGE","0.8599999999999999867","6","2","18.7749999999999985789","1","27","0","27","1","310.3634876864163061327","331.8721608607949065117","306.9829069263446967852","358.8929729543191911034","204","2","6","5","365.9829069263446967852","247.9829069263446967852","5","51.9100660279744943182","3.3805807600716093475","59","1.5","0","32556","134108","134163","134375","135892","Arc59.png"
"6.4.2","Cannonball Task","1","2021-08-30","09:55:09","MainBlock","mainloop","ODDBALL","ODDBALL","ORANGE","0.8599999999999999867","6","2","18.7749999999999985789","1","28","0","28","1","314.7061567087366711348","278.4512118213976918923","306.9829069263446967852","358.8929729543191911034","204","2","6","5","365.9829069263446967852","247.9829069263446967852","5","51.9100660279744943182","3.3805807600716093475","59","1.5","0","32556","136209","134163","134375","135892","Arc59.png"
"6.4.2","Cannonball Task","1","2021-08-30","09:55:09","MainBlock","placeshield_mouse","ODDBALL","ODDBALL","ORANGE","0.8599999999999999867","6","2","18.7749999999999985789","1","28","0","28","1","314.7061567087366711348","278.4512118213976918923","319.7126516897884584978","306.9829069263446967852","292","2","6","5","378.7126516897884584978","260.7126516897884584978","5","51.9100660279744943182","3.3805807600716093475","59","1.5","0","32556","136209","136268","134375","135892","Arc59.png"
"6.4.2","Cannonball Task","1","2021-08-30","09:55:09","MainBlock","revealshield","ODDBALL","ODDBALL","ORANGE","0.8599999999999999867","6","2","18.7749999999999985789","1","28","0","28","1","314.7061567087366711348","278.4512118213976918923","319.7126516897884584978","306.9829069263446967852","292","2","6","5","346.7126516897884584978","292.7126516897884584978","5","12.7297447634437617126","5.006494981051787363","27","1.5","0","32556","136209","136268","136583","135892","Arc27.png"
"6.4.2","Cannonball Task","1","2021-08-30","09:55:09","MainBlock","cannon_outcome","ODDBALL","ODDBALL","ORANGE","0.8599999999999999867","6","2","18.7749999999999985789","1","28","0","28","0","314.7061567087366711348","278.4512118213976918923","319.7126516897884584978","306.9829069263446967852","292","2","7","5","346.7126516897884584978","292.7126516897884584978","6","12.7297447634437617126","5.006494981051787363","27","1.5","0","32556","136209","136268","136583","138101","Arc27.png"
"6.4.2","Cannonball Task","1","2021-08-30","09:55:09","MainBlock","mainloop","ODDBALL","ODDBALL","ORANGE","0.8599999999999999867","6","2","18.7749999999999985789","1","29","1","29","0","314.7061567087366711348","311.829758601223545611","319.7126516897884584978","306.9829069263446967852","292","2","7","5","346.7126516897884584978","292.7126516897884584978","6","12.7297447634437617126","5.006494981051787363","27","1.5","0","32556","138429","136268","136583","138101","Arc27.png"
"6.4.2","Cannonball Task","1","2021-08-30","09:55:09","MainBlock","placeshield_mouse","ODDBALL","ODDBALL","ORANGE","0.8599999999999999867","6","2","18.7749999999999985789","1","29","1","29","0","314.7061567087366711348","311.829758601223545611","294.8765489222570295169","319.7126516897884584978","253","2","7","5","321.8765489222570295169","267.8765489222570295169","6","12.7297447634437617126","5.006494981051787363","27","1.5","0","32556","138429","138486","136583","138101","Arc27.png"
"6.4.2","Cannonball Task","1","2021-08-30","09:55:09","MainBlock","revealshield","ODDBALL","ODDBALL","ORANGE","0.8599999999999999867","6","2","18.7749999999999985789","1","29","1","29","0","314.7061567087366711348","311.829758601223545611","294.8765489222570295169","319.7126516897884584978","253","2","7","5","320.8765489222570295169","268.8765489222570295169","6","24.8361027675314289809","19.8296077864796416179","26","1.5","0","32556","138429","138486","138743","138101","Arc26.png"
"6.4.2","Cannonball Task","1","2021-08-30","09:55:09","MainBlock","cannon_outcome","ODDBALL","ODDBALL","ORANGE","0.8599999999999999867","6","2","18.7749999999999985789","1","29","1","29","0","314.7061567087366711348","311.829758601223545611","294.8765489222570295169","319.7126516897884584978","253","2","8","5","320.8765489222570295169","268.8765489222570295169","6","24.8361027675314289809","19.8296077864796416179","26","1.5","0","32556","138429","138486","138743","140261","Arc26.png"
"6.4.2","Cannonball Task","1","2021-08-30","09:55:09","MainBlock","mainloop","ODDBALL","ODDBALL","ORANGE","0.8599999999999999867","6","2","18.7749999999999985789","1","30","0","30","0","316.420027441501474641","312.6420070982359789014","294.8765489222570295169","319.7126516897884584978","253","2","8","5","320.8765489222570295169","268.8765489222570295169","6","24.8361027675314289809","19.8296077864796416179","26","1.5","0","32556","140577","138486","138743","140261","Arc26.png"
"6.4.2","Cannonball Task","1","2021-08-30","09:55:09","MainBlock","placeshield_mouse","ODDBALL","ODDBALL","ORANGE","0.8599999999999999867","6","2","18.7749999999999985789","1","30","0","30","0","316.420027441501474641","312.6420070982359789014","307.3666694127687151195","294.8765489222570295169","176","2","8","5","333.3666694127687151195","281.3666694127687151195","6","24.8361027675314289809","19.8296077864796416179","26","1.5","0","32556","140577","140632","138743","140261","Arc26.png"
