"build","experimentName","subject","date","time","trialcode","blockcode","stimulusitem1","trial.presentation_left.percentcorrect","trial.presentation_right.percentcorrect","trial.presentation_left.response","trial.presentation_left.latency","trial.presentation_right.response","trial.presentation_right.latency","picture.Left.currentvalue","picture.Right.currentvalue","block_number","task_phase","LeftStimSelected","RightStimSelected","percentTrialsCorrectFeedback_left","percentTrialsCorrectFeedback_right","responseAndFeedbackCategory","isThisTrialPractice","isResponseCorrect","isFeedbackAccurate","trial_number","total_trialnum","numbercorrectfeedback","totalcorrect","numberoftimesleft","numberoftimesright","rightleftcorrect","consecutivecorrect","reversalnumber","totalearnings","centsearned"
"6.4.2","Reversal_Task","1","2021-08-16","20:53:30","presentation_right","Experiment_block_rightstart","ship.bmp","33","100","33","400","36","412","20","18","1","Acquisiton","20","18","0.2000000000000000111","0.8000000000000000444","CRCF","0","1","1","1","13","0","","0","1","right","5","32","1.5","0"
"6.4.2","Reversal_Task","1","2021-08-16","20:53:30","fixation","Experiment_block_rightstart","+","33","100","33","400","36","412","20","18","1","Acquisiton","20","18","0.2000000000000000111","0.8000000000000000444","CRCF","0","1","1","1","13","1","","0","1","right","6","32","1.5","0.5"
"6.4.2","Reversal_Task","1","2021-08-16","20:53:30","presentation_right","Experiment_block_rightstart","ship.bmp","33","50","33","400","33","296","20","18","1","Acquisiton","20","18","0.2000000000000000111","0.8000000000000000444","IRIF","0","-1","1","2","14","1","","1","1","right","6","32","1.5","0.5"
"6.4.2","Reversal_Task","1","2021-08-16","20:53:30","fixation","Experiment_block_rightstart","+","33","50","33","400","33","296","20","18","1","Acquisiton","20","18","0.2000000000000000111","0.8000000000000000444","IRIF","0","-1","1","2","14","1","","1","1","right","0","32","1.5","0.5"
"6.4.2","Reversal_Task","1","2021-08-16","20:53:30","presentation_right","Experiment_block_rightstart","ship.bmp","33","66","33","400","36","161","20","18","1","Acquisiton","20","18","0.2000000000000000111","0.8000000000000000444","CRCF","0","1","1","3","15","1","","1","2","right","0","32","1.5","0.5"
"6.4.2","Reversal_Task","1","2021-08-16","20:53:30","fixation","Experiment_block_rightstart","+","33","66","33","400","36","161","20","18","1","Acquisiton","20","18","0.2000000000000000111","0.8000000000000000444","CRCF","0","1","1","3","15","2","","1","2","right","1","32","1.5","1"
"6.4.2","Reversal_Task","1","2021-08-16","20:53:30","presentation_right","Experiment_block_rightstart","ship.bmp","33","75","33","400","36","429","20","18","1","Acquisiton","20","18","0.2000000000000000111","0.8000000000000000444","CRCF","0","1","1","4","16","2","","1","3","right","1","32","1.5","1"
"6.4.2","Reversal_Task","1","2021-08-16","20:53:30","fixation","Experiment_block_rightstart","+","33","75","33","400","36","429","20","18","1","Acquisiton","20","18","0.2000000000000000111","0.8000000000000000444","CRCF","0","1","1","4","16","3","","1","3","right","2","32","1.5","1.5"
"6.4.2","Reversal_Task","1","2021-08-16","20:53:30","presentation_right","Experiment_block_rightstart","ship.bmp","33","60","33","400","0","2000","20","18","1","Acquisiton","20","18","0.2000000000000000111","0.8000000000000000444","NRNF","0","0","1","5","17","3","","1","3","right","2","32","1.5","1.5"
"6.4.2","Reversal_Task","1","2021-08-16","20:53:30","fixation","Experiment_block_rightstart","+","33","60","33","400","0","2000","20","18","1","Acquisiton","20","18","0.2000000000000000111","0.8000000000000000444","NRNF","0","0","1","5","17","3","","1","3","right","0","32","1.5","1.5"
"6.4.2","Reversal_Task","1","2021-08-16","20:53:30","presentation_right","Experiment_block_rightstart","ship.bmp","33","66","33","400","36","334","20","18","1","Acquisiton","20","18","0.2000000000000000111","0.8000000000000000444","CRCF","0","1","1","6","18","3","","1","4","right","0","32","1.5","1.5"
"6.4.2","Reversal_Task","1","2021-08-16","20:53:30","fixation","Experiment_block_rightstart","+","33","66","33","400","36","334","20","18","1","Acquisiton","20","18","0.2000000000000000111","0.8000000000000000444","CRCF","0","1","1","6","18","4","","1","4","right","1","32","1.5","2"
"6.4.2","Reversal_Task","1","2021-08-16","20:53:30","presentation_right","Experiment_block_rightstart","ship.bmp","33","71","33","400","36","155","20","18","1","Acquisiton","20","18","0.2000000000000000111","0.8000000000000000444","CRIF","0","1","-1","7","19","4","","1","5","right","1","32","1.5","2"
"6.4.2","Reversal_Task","1","2021-08-16","20:53:30","fixation","Experiment_block_rightstart","+","33","71","33","400","36","155","20","18","1","Acquisiton","20","18","0.2000000000000000111","0.8000000000000000444","CRIF","0","1","-1","7","19","4","","1","5","right","2","32","1.5","2"
"6.4.2","Reversal_Task","1","2021-08-16","20:53:30","presentation_right","Experiment_block_rightstart","ship.bmp","33","75","33","400","36","59","20","18","1","Acquisiton","20","18","0.2000000000000000111","0.8000000000000000444","CRCF","0","1","1","8","20","4","","1","6","right","2","32","1.5","2"
"6.4.2","Reversal_Task","1","2021-08-16","20:53:30","fixation","Experiment_block_rightstart","+","33","75","33","400","36","59","20","18","1","Acquisiton","20","18","0.2000000000000000111","0.8000000000000000444","CRCF","0","1","1","8","20","5","","1","6","right","3","32","1.5","2.5"
"6.4.2","Reversal_Task","1","2021-08-16","20:53:30","presentation_right","Experiment_block_rightstart","ship.bmp","33","77","33","400","36","292","20","18","1","Acquisiton","20","18","0.2000000000000000111","0.8000000000000000444","CRIF","0","1","-1","9","21","5","","1","7","right","3","32","1.5","2.5"
"6.4.2","Reversal_Task","1","2021-08-16","20:53:30","fixation","Experiment_block_rightstart","+","33","77","33","400","36","292","20","18","1","Acquisiton","20","18","0.2000000000000000111","0.8000000000000000444","CRIF","0","1","-1","9","21","5","","1","7","right","4","32","1.5","2.5"
"6.4.2","Reversal_Task","1","2021-08-16","20:53:30","presentation_right","Experiment_block_rightstart","ship.bmp","33","80","33","400","36","472","20","18","1","Acquisiton","20","18","0.2000000000000000111","0.8000000000000000444","CRCF","0","1","1","10","22","5","","1","8","right","4","32","1.5","2.5"
"6.4.2","Reversal_Task","1","2021-08-16","20:53:30","fixation","Experiment_block_rightstart","+","33","80","33","400","36","472","20","18","1","Acquisiton","20","18","0.2000000000000000111","0.8000000000000000444","CRCF","0","1","1","10","22","6","","1","8","right","5","32","1.5","3"
"6.4.2","Reversal_Task","1","2021-08-16","20:53:30","presentation_right","Experiment_block_rightstart","ship.bmp","33","81","33","400","36","272","20","18","1","Acquisiton","20","18","0.2000000000000000111","0.8000000000000000444","CRCF","0","1","1","11","23","6","","1","9","right","5","32","1.5","3"
"6.4.2","Reversal_Task","1","2021-08-16","20:53:30","fixation","Experiment_block_rightstart","+","33","81","33","400","36","272","20","18","1","Acquisiton","20","18","0.2000000000000000111","0.8000000000000000444","CRCF","0","1","1","11","23","7","","1","9","right","6","32","1.5","3.5"
"6.4.2","Reversal_Task","1","2021-08-16","20:53:30","presentation_right","Experiment_block_rightstart","ship.bmp","33","83","33","400","36","1646","20","18","1","Acquisiton","20","18","0.2000000000000000111","0.8000000000000000444","CRCF","0","1","1","12","24","7","","1","10","right","6","32","1.5","3.5"
"6.4.2","Reversal_Task","1","2021-08-16","20:53:30","fixation","Experiment_block_rightstart","+","33","83","33","400","36","1646","20","18","1","Acquisiton","20","18","0.2000000000000000111","0.8000000000000000444","CRCF","0","1","1","12","24","8","","1","10","right","7","32","1.5","4"
"6.4.2","Reversal_Task","1","2021-08-16","20:53:30","presentation_right","Experiment_block_rightstart","ship.bmp","33","84","33","400","36","407","20","18","1","Acquisiton","20","18","0.2000000000000000111","0.8000000000000000444","CRIF","0","1","-1","13","25","8","","1","11","right","7","32","1.5","4"
"6.4.2","Reversal_Task","1","2021-08-16","20:53:30","fixation","Experiment_block_rightstart","+","33","84","33","400","36","407","20","18","1","Acquisiton","20","18","0.2000000000000000111","0.8000000000000000444","CRIF","0","1","-1","13","25","8","","1","11","right","8","32","1.5","4"
"6.4.2","Reversal_Task","1","2021-08-16","20:53:30","presentation_right","Experiment_block_rightstart","ship.bmp","33","85","33","400","36","317","20","18","1","Acquisiton","20","18","0.2000000000000000111","0.8000000000000000444","CRCF","0","1","1","14","26","8","","1","12","right","8","32","1.5","4"
"6.4.2","Reversal_Task","1","2021-08-16","20:53:30","fixation","Experiment_block_rightstart","+","33","85","33","400","36","317","20","18","1","Acquisiton","20","18","0.2000000000000000111","0.8000000000000000444","CRCF","0","1","1","14","26","9","","1","12","right","9","32","1.5","4.5"
"6.4.2","Reversal_Task","1","2021-08-16","20:53:30","presentation_right","Experiment_block_rightstart","ship.bmp","33","86","33","400","36","62","20","18","1","Acquisiton","20","18","0.2000000000000000111","0.8000000000000000444","CRCF","0","1","1","15","27","9","","1","13","right","9","32","1.5","4.5"
"6.4.2","Reversal_Task","1","2021-08-16","20:53:30","fixation","Experiment_block_rightstart","+","33","86","33","400","36","62","20","18","1","Acquisiton","20","18","0.2000000000000000111","0.8000000000000000444","CRCF","0","1","1","15","27","10","","1","13","right","10","32","1.5","5"
"6.4.2","Reversal_Task","1","2021-08-16","20:53:30","presentation_right","Experiment_block_rightstart","ship.bmp","33","87","33","400","36","227","20","18","1","Acquisiton","20","18","0.2000000000000000111","0.8000000000000000444","CRIF","0","1","-1","16","28","10","","1","14","right","10","32","1.5","5"
"6.4.2","Reversal_Task","1","2021-08-16","20:53:30","fixation","Experiment_block_rightstart","+","33","87","33","400","36","227","20","18","1","Acquisiton","20","18","0.2000000000000000111","0.8000000000000000444","CRIF","0","1","-1","16","28","10","","1","14","right","11","32","1.5","5"
"6.4.2","Reversal_Task","1","2021-08-16","20:53:30","presentation_right","Experiment_block_rightstart","ship.bmp","33","88","33","400","36","103","20","18","1","Acquisiton","20","18","0.2000000000000000111","0.8000000000000000444","CRCF","0","1","1","17","29","10","","1","15","right","11","32","1.5","5"
"6.4.2","Reversal_Task","1","2021-08-16","20:53:30","fixation","Experiment_block_rightstart","+","33","88","33","400","36","103","20","18","1","Acquisiton","20","18","0.2000000000000000111","0.8000000000000000444","CRCF","0","1","1","17","29","11","","1","15","right","12","32","1.5","5.5"
"6.4.2","Reversal_Task","1","2021-08-16","20:53:30","presentation_right","Experiment_block_rightstart","ship.bmp","33","88","33","400","36","348","20","18","1","Acquisiton","20","18","0.2000000000000000111","0.8000000000000000444","CRCF","0","1","1","18","30","11","","1","16","right","12","32","1.5","5.5"
"6.4.2","Reversal_Task","1","2021-08-16","20:53:30","fixation","Experiment_block_rightstart","+","33","88","33","400","36","348","20","18","1","Acquisiton","20","18","0.2000000000000000111","0.8000000000000000444","CRCF","0","1","1","18","30","12","","1","16","right","13","32","1.5","6"
"6.4.2","Reversal_Task","1","2021-08-16","20:53:30","presentation_right","Experiment_block_rightstart","ship.bmp","33","89","33","400","36","378","20","18","1","Acquisiton","20","18","0.2000000000000000111","0.8000000000000000444","CRCF","0","1","1","19","31","12","","1","17","right","13","32","1.5","6"
"6.4.2","Reversal_Task","1","2021-08-16","20:53:30","fixation","Experiment_block_rightstart","+","33","89","33","400","36","378","20","18","1","Acquisiton","20","18","0.2000000000000000111","0.8000000000000000444","CRCF","0","1","1","19","31","13","","1","17","right","14","32","1.5","6.5"
"6.4.2","Reversal_Task","1","2021-08-16","20:53:30","presentation_right","Experiment_block_rightstart","ship.bmp","33","90","33","400","36","407","20","18","1","Acquisiton","20","18","0.2000000000000000111","0.8000000000000000444","CRCF","0","1","1","20","32","13","","1","18","right","14","32","1.5","6.5"
"6.4.2","Reversal_Task","1","2021-08-16","20:53:30","fixation","Experiment_block_rightstart","+","33","90","33","400","36","407","20","18","1","Acquisiton","20","18","0.2000000000000000111","0.8000000000000000444","CRCF","0","1","1","20","32","14","","1","18","right","15","32","1.5","7"
"6.4.2","Reversal_Task","1","2021-08-16","20:53:30","presentation_right","Experiment_block_rightstart","ship.bmp","33","90","33","400","36","328","20","18","1","Acquisiton","20","18","0.2000000000000000111","0.8000000000000000444","CRCF","0","1","1","21","33","14","","1","19","right","15","32","1.5","7"
"6.4.2","Reversal_Task","1","2021-08-16","20:53:30","fixation","Experiment_block_rightstart","+","33","90","33","400","36","328","20","18","1","Acquisiton","20","18","0.2000000000000000111","0.8000000000000000444","CRCF","0","1","1","21","33","15","","1","19","right","16","32","1.5","7.5"
"6.4.2","Reversal_Task","1","2021-08-16","20:53:30","presentation_right","Experiment_block_rightstart","ship.bmp","33","86","33","400","0","2000","20","18","1","Acquisiton","20","18","0.2000000000000000111","0.8000000000000000444","NRNF","0","0","1","22","34","15","","1","19","right","16","32","1.5","7.5"
"6.4.2","Reversal_Task","1","2021-08-16","20:53:30","fixation","Experiment_block_rightstart","+","33","86","33","400","0","2000","20","18","1","Acquisiton","20","18","0.2000000000000000111","0.8000000000000000444","NRNF","0","0","1","22","34","15","","1","19","right","0","32","1.5","7.5"
"6.4.2","Reversal_Task","1","2021-08-16","20:53:30","presentation_right","Experiment_block_rightstart","ship.bmp","33","86","33","400","36","161","20","18","1","Acquisiton","20","18","0.2000000000000000111","0.8000000000000000444","CRCF","0","1","1","23","35","15","","1","20","right","0","32","1.5","7.5"
"6.4.2","Reversal_Task","1","2021-08-16","20:53:30","fixation","Experiment_block_rightstart","+","33","86","33","400","36","161","20","18","1","Acquisiton","20","18","0.2000000000000000111","0.8000000000000000444","CRCF","0","1","1","23","35","16","","1","20","right","1","32","1.5","8"
"6.4.2","Reversal_Task","1","2021-08-16","20:53:30","presentation_right","Experiment_block_rightstart","ship.bmp","33","87","33","400","36","463","20","18","1","Acquisiton","20","18","0.2000000000000000111","0.8000000000000000444","CRCF","0","1","1","24","36","16","","1","21","right","1","32","1.5","8"
"6.4.2","Reversal_Task","1","2021-08-16","20:53:30","fixation","Experiment_block_rightstart","+","33","87","33","400","36","463","20","18","1","Acquisiton","20","18","0.2000000000000000111","0.8000000000000000444","CRCF","0","1","1","24","36","17","","1","21","right","2","32","1.5","8.5"
"6.4.2","Reversal_Task","1","2021-08-16","20:53:30","presentation_right","Experiment_block_rightstart","ship.bmp","33","88","33","400","36","1151","20","18","1","Acquisiton","20","18","0.2000000000000000111","0.8000000000000000444","CRCF","0","1","1","25","37","17","","1","22","right","2","32","1.5","8.5"
"6.4.2","Reversal_Task","1","2021-08-16","20:53:30","fixation","Experiment_block_rightstart","+","33","88","33","400","36","1151","20","18","1","Acquisiton","20","18","0.2000000000000000111","0.8000000000000000444","CRCF","0","1","1","25","37","18","","1","22","right","3","32","1.5","9"
"6.4.2","Reversal_Task","1","2021-08-16","20:53:30","presentation_right","Experiment_block_rightstart","ship.bmp","33","88","33","400","36","909","20","18","1","Acquisiton","20","18","0.2000000000000000111","0.8000000000000000444","CRCF","0","1","1","26","38","18","","1","23","right","3","32","1.5","9"
"6.4.2","Reversal_Task","1","2021-08-16","20:53:30","fixation","Experiment_block_rightstart","+","33","88","33","400","36","909","20","18","1","Acquisiton","20","18","0.2000000000000000111","0.8000000000000000444","CRCF","0","1","1","26","38","19","","1","23","right","4","32","1.5","9.5"
"6.4.2","Reversal_Task","1","2021-08-16","20:53:30","presentation_right","Experiment_block_rightstart","ship.bmp","33","88","33","400","36","124","20","18","1","Acquisiton","20","18","0.2000000000000000111","0.8000000000000000444","CRCF","0","1","1","27","39","19","","1","24","right","4","32","1.5","9.5"
"6.4.2","Reversal_Task","1","2021-08-16","20:53:30","fixation","Experiment_block_rightstart","+","33","88","33","400","36","124","20","18","1","Acquisiton","20","18","0.2000000000000000111","0.8000000000000000444","CRCF","0","1","1","27","39","20","","1","24","right","5","32","1.5","10"
"6.4.2","Reversal_Task","1","2021-08-16","20:53:30","presentation_right","Experiment_block_rightstart","ship.bmp","33","89","33","400","36","294","20","18","1","Acquisiton","20","18","0.2000000000000000111","0.8000000000000000444","CRCF","0","1","1","28","40","20","","1","25","right","5","32","1.5","10"
"6.4.2","Reversal_Task","1","2021-08-16","20:53:30","fixation","Experiment_block_rightstart","+","33","89","33","400","36","294","20","18","1","Acquisiton","20","18","0.2000000000000000111","0.8000000000000000444","CRCF","0","1","1","28","40","21","","1","25","right","6","32","1.5","10.5"
"6.4.2","Reversal_Task","1","2021-08-16","20:53:30","presentation_right","Experiment_block_rightstart","ship.bmp","33","89","33","400","36","1089","20","18","1","Acquisiton","20","18","0.2000000000000000111","0.8000000000000000444","CRCF","0","1","1","29","41","21","","1","26","right","6","32","1.5","10.5"
"6.4.2","Reversal_Task","1","2021-08-16","20:53:30","fixation","Experiment_block_rightstart","+","33","89","33","400","36","1089","20","18","1","Acquisiton","20","18","0.2000000000000000111","0.8000000000000000444","CRCF","0","1","1","29","41","22","","1","26","right","7","32","1.5","11"
"6.4.2","Reversal_Task","1","2021-08-16","20:53:30","presentation_right","Experiment_block_rightstart","ship.bmp","33","86","33","400","0","2000","20","18","1","Acquisiton","20","18","0.2000000000000000111","0.8000000000000000444","NRNF","0","0","1","30","42","22","","1","26","right","7","32","1.5","11"
"6.4.2","Reversal_Task","1","2021-08-16","20:53:30","fixation","Experiment_block_rightstart","+","33","86","33","400","0","2000","20","18","1","Acquisiton","20","18","0.2000000000000000111","0.8000000000000000444","NRNF","0","0","1","30","42","22","","1","26","right","0","32","1.5","11"
"6.4.2","Reversal_Task","1","2021-08-16","20:53:30","presentation_right","Experiment_block_rightstart","ship.bmp","33","87","33","400","36","283","20","18","1","Acquisiton","20","18","0.2000000000000000111","0.8000000000000000444","CRCF","0","1","1","31","43","22","","1","27","right","0","32","1.5","11"
"6.4.2","Reversal_Task","1","2021-08-16","20:53:30","fixation","Experiment_block_rightstart","+","33","87","33","400","36","283","20","18","1","Acquisiton","20","18","0.2000000000000000111","0.8000000000000000444","CRCF","0","1","1","31","43","23","","1","27","right","1","32","1.5","11.5"
"6.4.2","Reversal_Task","1","2021-08-16","20:53:30","presentation_right","Experiment_block_rightstart","ship.bmp","33","87","33","400","36","312","20","18","1","Acquisiton","20","18","0.2000000000000000111","0.8000000000000000444","CRCF","0","1","1","32","44","23","","1","28","right","1","32","1.5","11.5"
"6.4.2","Reversal_Task","1","2021-08-16","20:53:30","fixation","Experiment_block_rightstart","+","33","87","33","400","36","312","20","18","1","Acquisiton","20","18","0.2000000000000000111","0.8000000000000000444","CRCF","0","1","1","32","44","24","","1","28","right","2","32","1.5","12"
"6.4.2","Reversal_Task","1","2021-08-16","20:53:30","presentation_left","Experiment_block_rightstart","ship.bmp","0","87","0","2000","36","312","20","18","1","Reversal","20","18","0.8000000000000000444","0.2000000000000000111","NRNF","0","0","1","33","45","24","","1","28","left","2","32","1.5","12"
"6.4.2","Reversal_Task","1","2021-08-16","20:53:30","fixation","Experiment_block_rightstart","+","0","87","0","2000","36","312","20","18","1","Reversal","20","18","0.8000000000000000444","0.2000000000000000111","NRNF","0","0","1","33","45","24","","1","28","left","0","32","1.5","12"
"6.4.2","Reversal_Task","1","2021-08-16","20:53:30","presentation_left","Experiment_block_rightstart","ship.bmp","0","87","36","534","36","312","20","18","1","Reversal","20","18","0.8000000000000000444","0.2000000000000000111","IRIF","0","-1","1","34","46","24","","1","29","left","0","32","1.5","12"
"6.4.2","Reversal_Task","1","2021-08-16","20:53:30","fixation","Experiment_block_rightstart","+","0","87","36","534","36","312","20","18","1","Reversal","20","18","0.8000000000000000444","0.2000000000000000111","IRIF","0","-1","1","34","46","24","","1","29","left","0","32","1.5","12"
"6.4.2","Reversal_Task","1","2021-08-16","20:53:30","presentation_left","Experiment_block_rightstart","ship.bmp","0","87","36","212","36","312","20","18","1","Reversal","20","18","0.8000000000000000444","0.2000000000000000111","IRCF","0","-1","-1","35","47","24","","1","30","left","0","32","1.5","12"
"6.4.2","Reversal_Task","1","2021-08-16","20:53:30","fixation","Experiment_block_rightstart","+","0","87","36","212","36","312","20","18","1","Reversal","20","18","0.8000000000000000444","0.2000000000000000111","IRCF","0","-1","-1","35","47","25","","1","30","left","0","32","1.5","12.5"
"6.4.2","Reversal_Task","1","2021-08-16","20:53:30","presentation_left","Experiment_block_rightstart","ship.bmp","0","87","36","138","36","312","20","18","1","Reversal","20","18","0.8000000000000000444","0.2000000000000000111","IRIF","0","-1","1","36","48","25","","1","31","left","0","32","1.5","12.5"
"6.4.2","Reversal_Task","1","2021-08-16","20:53:30","fixation","Experiment_block_rightstart","+","0","87","36","138","36","312","20","18","1","Reversal","20","18","0.8000000000000000444","0.2000000000000000111","IRIF","0","-1","1","36","48","25","","1","31","left","0","32","1.5","12.5"
"6.4.2","Reversal_Task","1","2021-08-16","20:53:30","presentation_left","Experiment_block_rightstart","ship.bmp","0","87","36","215","36","312","20","18","1","Reversal","20","18","0.8000000000000000444","0.2000000000000000111","IRIF","0","-1","1","37","49","25","","1","32","left","0","32","1.5","12.5"
"6.4.2","Reversal_Task","1","2021-08-16","20:53:30","fixation","Experiment_block_rightstart","+","0","87","36","215","36","312","20","18","1","Reversal","20","18","0.8000000000000000444","0.2000000000000000111","IRIF","0","-1","1","37","49","25","","1","32","left","0","32","1.5","12.5"
"6.4.2","Reversal_Task","1","2021-08-16","20:53:30","presentation_left","Experiment_block_rightstart","ship.bmp","0","87","36","209","36","312","20","18","1","Reversal","20","18","0.8000000000000000444","0.2000000000000000111","IRCF","0","-1","-1","38","50","25","","1","33","left","0","32","1.5","12.5"
"6.4.2","Reversal_Task","1","2021-08-16","20:53:30","fixation","Experiment_block_rightstart","+","0","87","36","209","36","312","20","18","1","Reversal","20","18","0.8000000000000000444","0.2000000000000000111","IRCF","0","-1","-1","38","50","26","","1","33","left","0","32","1.5","13"
"6.4.2","Reversal_Task","1","2021-08-16","20:53:30","presentation_left","Experiment_block_rightstart","ship.bmp","0","87","36","945","36","312","20","18","1","Reversal","20","18","0.8000000000000000444","0.2000000000000000111","IRIF","0","-1","1","39","51","26","","1","34","left","0","32","1.5","13"
"6.4.2","Reversal_Task","1","2021-08-16","20:53:30","fixation","Experiment_block_rightstart","+","0","87","36","945","36","312","20","18","1","Reversal","20","18","0.8000000000000000444","0.2000000000000000111","IRIF","0","-1","1","39","51","26","","1","34","left","0","32","1.5","13"
"6.4.2","Reversal_Task","1","2021-08-16","20:53:30","presentation_left","Experiment_block_rightstart","ship.bmp","0","87","36","48","36","312","20","18","1","Reversal","20","18","0.8000000000000000444","0.2000000000000000111","IRIF","0","-1","1","40","52","26","","1","35","left","0","32","1.5","13"
"6.4.2","Reversal_Task","1","2021-08-16","20:53:30","fixation","Experiment_block_rightstart","+","0","87","36","48","36","312","20","18","1","Reversal","20","18","0.8000000000000000444","0.2000000000000000111","IRIF","0","-1","1","40","52","26","","1","35","left","0","32","1.5","13"
"6.4.2","Reversal_Task","1","2021-08-16","20:53:30","presentation_left","Experiment_block_rightstart","ship.bmp","0","87","36","479","36","312","20","18","1","Reversal","20","18","0.8000000000000000444","0.2000000000000000111","IRIF","0","-1","1","41","53","26","","1","36","left","0","32","1.5","13"
"6.4.2","Reversal_Task","1","2021-08-16","20:53:30","fixation","Experiment_block_rightstart","+","0","87","36","479","36","312","20","18","1","Reversal","20","18","0.8000000000000000444","0.2000000000000000111","IRIF","0","-1","1","41","53","26","","1","36","left","0","32","1.5","13"
"6.4.2","Reversal_Task","1","2021-08-16","20:53:30","presentation_left","Experiment_block_rightstart","ship.bmp","0","87","0","2000","36","312","20","18","1","Reversal","20","18","0.8000000000000000444","0.2000000000000000111","NRNF","0","0","1","42","54","26","","1","36","left","0","32","1.5","13"
"6.4.2","Reversal_Task","1","2021-08-16","20:53:30","fixation","Experiment_block_rightstart","+","0","87","0","2000","36","312","20","18","1","Reversal","20","18","0.8000000000000000444","0.2000000000000000111","NRNF","0","0","1","42","54","26","","1","36","left","0","32","1.5","13"
"6.4.2","Reversal_Task","1","2021-08-16","20:53:30","presentation_left","Experiment_block_rightstart","ship.bmp","0","87","36","1154","36","312","20","18","1","Reversal","20","18","0.8000000000000000444","0.2000000000000000111","IRIF","0","-1","1","43","55","26","","1","37","left","0","32","1.5","13"
"6.4.2","Reversal_Task","1","2021-08-16","20:53:30","fixation","Experiment_block_rightstart","+","0","87","36","1154","36","312","20","18","1","Reversal","20","18","0.8000000000000000444","0.2000000000000000111","IRIF","0","-1","1","43","55","26","","1","37","left","0","32","1.5","13"
"6.4.2","Reversal_Task","1","2021-08-16","20:53:30","presentation_left","Experiment_block_rightstart","ship.bmp","0","87","36","811","36","312","20","18","1","Reversal","20","18","0.8000000000000000444","0.2000000000000000111","IRIF","0","-1","1","44","56","26","","1","38","left","0","32","1.5","13"
"6.4.2","Reversal_Task","1","2021-08-16","20:53:30","fixation","Experiment_block_rightstart","+","0","87","36","811","36","312","20","18","1","Reversal","20","18","0.8000000000000000444","0.2000000000000000111","IRIF","0","-1","1","44","56","26","","1","38","left","0","32","1.5","13"
"6.4.2","Reversal_Task","1","2021-08-16","20:53:30","presentation_left","Experiment_block_rightstart","ship.bmp","0","87","36","260","36","312","20","18","1","Reversal","20","18","0.8000000000000000444","0.2000000000000000111","IRIF","0","-1","1","45","57","26","","1","39","left","0","32","1.5","13"
"6.4.2","Reversal_Task","1","2021-08-16","20:53:30","fixation","Experiment_block_rightstart","+","0","87","36","260","36","312","20","18","1","Reversal","20","18","0.8000000000000000444","0.2000000000000000111","IRIF","0","-1","1","45","57","26","","1","39","left","0","32","1.5","13"
"6.4.2","Reversal_Task","1","2021-08-16","20:53:30","presentation_left","Experiment_block_rightstart","ship.bmp","0","87","36","350","36","312","20","18","1","Reversal","20","18","0.8000000000000000444","0.2000000000000000111","IRCF","0","-1","-1","46","58","26","","1","40","left","0","32","1.5","13"
"6.4.2","Reversal_Task","1","2021-08-16","20:53:30","fixation","Experiment_block_rightstart","+","0","87","36","350","36","312","20","18","1","Reversal","20","18","0.8000000000000000444","0.2000000000000000111","IRCF","0","-1","-1","46","58","27","","1","40","left","0","32","1.5","13.5"
"6.4.2","Reversal_Task","1","2021-08-16","20:53:30","presentation_left","Experiment_block_rightstart","ship.bmp","0","87","36","424","36","312","20","18","1","Reversal","20","18","0.8000000000000000444","0.2000000000000000111","IRCF","0","-1","-1","47","59","27","","1","41","left","0","32","1.5","13.5"
"6.4.2","Reversal_Task","1","2021-08-16","20:53:30","fixation","Experiment_block_rightstart","+","0","87","36","424","36","312","20","18","1","Reversal","20","18","0.8000000000000000444","0.2000000000000000111","IRCF","0","-1","-1","47","59","28","","1","41","left","0","32","1.5","14"
"6.4.2","Reversal_Task","1","2021-08-16","20:53:30","presentation_left","Experiment_block_rightstart","ship.bmp","0","87","36","598","36","312","20","18","1","Reversal","20","18","0.8000000000000000444","0.2000000000000000111","IRCF","0","-1","-1","48","60","28","","1","42","left","0","32","1.5","14"
"6.4.2","Reversal_Task","1","2021-08-16","20:53:30","fixation","Experiment_block_rightstart","+","0","87","36","598","36","312","20","18","1","Reversal","20","18","0.8000000000000000444","0.2000000000000000111","IRCF","0","-1","-1","48","60","29","","1","42","left","0","32","1.5","14.5"
"6.4.2","Reversal_Task","1","2021-08-16","20:53:30","presentation_left","Experiment_block_rightstart","ship.bmp","0","87","36","364","36","312","20","18","1","Reversal","20","18","0.8000000000000000444","0.2000000000000000111","IRIF","0","-1","1","49","61","29","","1","43","left","0","32","1.5","14.5"
"6.4.2","Reversal_Task","1","2021-08-16","20:53:30","fixation","Experiment_block_rightstart","+","0","87","36","364","36","312","20","18","1","Reversal","20","18","0.8000000000000000444","0.2000000000000000111","IRIF","0","-1","1","49","61","29","","1","43","left","0","32","1.5","14.5"
"6.4.2","Reversal_Task","1","2021-08-16","20:53:30","presentation_left","Experiment_block_rightstart","ship.bmp","0","87","36","263","36","312","20","18","1","Reversal","20","18","0.8000000000000000444","0.2000000000000000111","IRIF","0","-1","1","50","62","29","","1","44","left","0","32","1.5","14.5"
"6.4.2","Reversal_Task","1","2021-08-16","20:53:30","fixation","Experiment_block_rightstart","+","0","87","36","263","36","312","20","18","2","Reversal","20","18","0.8000000000000000444","0.2000000000000000111","IRIF","0","-1","1","50","62","29","","1","44","left","0","32","1.5","14.5"
"6.4.2","Reversal_Task","1","2021-08-16","20:53:30","reset_trial","Experiment_block_rightstart","Press SPACE to continue","0","87","36","263","36","312","20","18","2","Reversal","20","18","0.8000000000000000444","0.2000000000000000111","IRIF","0","-1","1","50","62","29","","0","0","left","0","31","1.5","14.5"
"6.4.2","Reversal_Task","1","2021-08-16","20:53:30","presentation_right","Experiment_block_rightstart","frog.bmp","0","100","36","263","36","1473","34","23","2","Acquisiton","34","23","0.2000000000000000111","0.8000000000000000444","CRCF","0","1","1","1","63","0","","0","1","right","0","31","16","0"
"6.4.2","Reversal_Task","1","2021-08-16","20:53:30","fixation","Experiment_block_rightstart","+","0","100","36","263","36","1473","34","23","2","Acquisiton","34","23","0.2000000000000000111","0.8000000000000000444","CRCF","0","1","1","1","63","1","","0","1","right","1","31","16","0.5"
"6.4.2","Reversal_Task","1","2021-08-16","20:53:30","presentation_right","Experiment_block_rightstart","frog.bmp","0","100","36","263","36","185","34","23","2","Acquisiton","34","23","0.2000000000000000111","0.8000000000000000444","CRCF","0","1","1","2","64","1","","0","2","right","1","31","16","0.5"
"6.4.2","Reversal_Task","1","2021-08-16","20:53:30","fixation","Experiment_block_rightstart","+","0","100","36","263","36","185","34","23","2","Acquisiton","34","23","0.2000000000000000111","0.8000000000000000444","CRCF","0","1","1","2","64","2","","0","2","right","2","31","16","1"
"6.4.2","Reversal_Task","1","2021-08-16","20:53:30","presentation_right","Experiment_block_rightstart","frog.bmp","0","100","36","263","36","53","34","23","2","Acquisiton","34","23","0.2000000000000000111","0.8000000000000000444","CRCF","0","1","1","3","65","2","","0","3","right","2","31","16","1"
"6.4.2","Reversal_Task","1","2021-08-16","20:53:30","fixation","Experiment_block_rightstart","+","0","100","36","263","36","53","34","23","2","Acquisiton","34","23","0.2000000000000000111","0.8000000000000000444","CRCF","0","1","1","3","65","3","","0","3","right","3","31","16","1.5"
"6.4.2","Reversal_Task","1","2021-08-16","20:53:30","presentation_right","Experiment_block_rightstart","frog.bmp","0","100","36","263","36","0","34","23","2","Acquisiton","34","23","0.2000000000000000111","0.8000000000000000444","CRCF","0","1","1","4","66","3","","0","4","right","3","31","16","1.5"
"6.4.2","Reversal_Task","1","2021-08-16","20:53:30","fixation","Experiment_block_rightstart","+","0","100","36","263","36","0","34","23","2","Acquisiton","34","23","0.2000000000000000111","0.8000000000000000444","CRCF","0","1","1","4","66","4","","0","4","right","4","31","16","2"
"6.4.2","Reversal_Task","1","2021-08-16","20:53:30","presentation_right","Experiment_block_rightstart","frog.bmp","0","100","36","263","36","447","34","23","2","Acquisiton","34","23","0.2000000000000000111","0.8000000000000000444","CRCF","0","1","1","5","67","4","","0","5","right","4","31","16","2"
"6.4.2","Reversal_Task","1","2021-08-16","20:53:30","fixation","Experiment_block_rightstart","+","0","100","36","263","36","447","34","23","2","Acquisiton","34","23","0.2000000000000000111","0.8000000000000000444","CRCF","0","1","1","5","67","5","","0","5","right","5","31","16","2.5"
"6.4.2","Reversal_Task","1","2021-08-16","20:53:30","presentation_right","Experiment_block_rightstart","frog.bmp","0","100","36","263","36","1006","34","23","2","Acquisiton","34","23","0.2000000000000000111","0.8000000000000000444","CRCF","0","1","1","6","68","5","","0","6","right","5","31","16","2.5"
"6.4.2","Reversal_Task","1","2021-08-16","20:53:30","fixation","Experiment_block_rightstart","+","0","100","36","263","36","1006","34","23","2","Acquisiton","34","23","0.2000000000000000111","0.8000000000000000444","CRCF","0","1","1","6","68","6","","0","6","right","6","31","16","3"
"6.4.2","Reversal_Task","1","2021-08-16","20:53:30","presentation_right","Experiment_block_rightstart","frog.bmp","0","100","36","263","36","161","34","23","2","Acquisiton","34","23","0.2000000000000000111","0.8000000000000000444","CRCF","0","1","1","7","69","6","","0","7","right","6","31","16","3"
"6.4.2","Reversal_Task","1","2021-08-16","20:53:30","fixation","Experiment_block_rightstart","+","0","100","36","263","36","161","34","23","2","Acquisiton","34","23","0.2000000000000000111","0.8000000000000000444","CRCF","0","1","1","7","69","7","","0","7","right","7","31","16","3.5"
"6.4.2","Reversal_Task","1","2021-08-16","20:53:30","presentation_right","Experiment_block_rightstart","frog.bmp","0","100","36","263","36","781","34","23","2","Acquisiton","34","23","0.2000000000000000111","0.8000000000000000444","CRIF","0","1","-1","8","70","7","","0","8","right","7","31","16","3.5"
"6.4.2","Reversal_Task","1","2021-08-16","20:53:30","fixation","Experiment_block_rightstart","+","0","100","36","263","36","781","34","23","2","Acquisiton","34","23","0.2000000000000000111","0.8000000000000000444","CRIF","0","1","-1","8","70","7","","0","8","right","8","31","16","3.5"
"6.4.2","Reversal_Task","1","2021-08-16","20:53:30","presentation_right","Experiment_block_rightstart","frog.bmp","0","100","36","263","36","160","34","23","2","Acquisiton","34","23","0.2000000000000000111","0.8000000000000000444","CRCF","0","1","1","9","71","7","","0","9","right","8","31","16","3.5"
"6.4.2","Reversal_Task","1","2021-08-16","20:53:30","fixation","Experiment_block_rightstart","+","0","100","36","263","36","160","34","23","2","Acquisiton","34","23","0.2000000000000000111","0.8000000000000000444","CRCF","0","1","1","9","71","8","","0","9","right","9","31","16","4"
"6.4.2","Reversal_Task","1","2021-08-16","20:53:30","presentation_right","Experiment_block_rightstart","frog.bmp","0","100","36","263","36","129","34","23","2","Acquisiton","34","23","0.2000000000000000111","0.8000000000000000444","CRCF","0","1","1","10","72","8","","0","10","right","9","31","16","4"
"6.4.2","Reversal_Task","1","2021-08-16","20:53:30","fixation","Experiment_block_rightstart","+","0","100","36","263","36","129","34","23","2","Acquisiton","34","23","0.2000000000000000111","0.8000000000000000444","CRCF","0","1","1","10","72","9","","0","10","right","10","31","16","4.5"
"6.4.2","Reversal_Task","1","2021-08-16","20:53:30","presentation_right","Experiment_block_rightstart","frog.bmp","0","100","36","263","36","1264","34","23","2","Acquisiton","34","23","0.2000000000000000111","0.8000000000000000444","CRIF","0","1","-1","11","73","9","","0","11","right","10","31","16","4.5"
"6.4.2","Reversal_Task","1","2021-08-16","20:53:30","fixation","Experiment_block_rightstart","+","0","100","36","263","36","1264","34","23","2","Acquisiton","34","23","0.2000000000000000111","0.8000000000000000444","CRIF","0","1","-1","11","73","9","","0","11","right","11","31","16","4.5"
"6.4.2","Reversal_Task","1","2021-08-16","20:53:30","presentation_right","Experiment_block_rightstart","frog.bmp","0","91","36","263","33","253","34","23","2","Acquisiton","34","23","0.2000000000000000111","0.8000000000000000444","IRIF","0","-1","1","12","74","9","","1","11","right","11","31","16","4.5"
"6.4.2","Reversal_Task","1","2021-08-16","20:53:30","fixation","Experiment_block_rightstart","+","0","91","36","263","33","253","34","23","2","Acquisiton","34","23","0.2000000000000000111","0.8000000000000000444","IRIF","0","-1","1","12","74","9","","1","11","right","0","31","16","4.5"
"6.4.2","Reversal_Task","1","2021-08-16","20:53:30","presentation_right","Experiment_block_rightstart","frog.bmp","0","84","36","263","33","224","34","23","2","Acquisiton","34","23","0.2000000000000000111","0.8000000000000000444","IRIF","0","-1","1","13","75","9","","2","11","right","0","31","16","4.5"
"6.4.2","Reversal_Task","1","2021-08-16","20:53:30","fixation","Experiment_block_rightstart","+","0","84","36","263","33","224","34","23","2","Acquisiton","34","23","0.2000000000000000111","0.8000000000000000444","IRIF","0","-1","1","13","75","9","","2","11","right","0","31","16","4.5"
"6.4.2","Reversal_Task","1","2021-08-16","20:53:30","presentation_right","Experiment_block_rightstart","frog.bmp","0","78","36","263","33","159","34","23","2","Acquisiton","34","23","0.2000000000000000111","0.8000000000000000444","IRIF","0","-1","1","14","76","9","","3","11","right","0","31","16","4.5"
"6.4.2","Reversal_Task","1","2021-08-16","20:53:30","fixation","Experiment_block_rightstart","+","0","78","36","263","33","159","34","23","2","Acquisiton","34","23","0.2000000000000000111","0.8000000000000000444","IRIF","0","-1","1","14","76","9","","3","11","right","0","31","16","4.5"
"6.4.2","Reversal_Task","1","2021-08-16","20:53:30","presentation_right","Experiment_block_rightstart","frog.bmp","0","73","36","263","33","9","34","23","2","Acquisiton","34","23","0.2000000000000000111","0.8000000000000000444","IRIF","0","-1","1","15","77","9","","4","11","right","0","31","16","4.5"
"6.4.2","Reversal_Task","1","2021-08-16","20:53:30","fixation","Experiment_block_rightstart","+","0","73","36","263","33","9","34","23","2","Acquisiton","34","23","0.2000000000000000111","0.8000000000000000444","IRIF","0","-1","1","15","77","9","","4","11","right","0","31","16","4.5"
"6.4.2","Reversal_Task","1","2021-08-16","20:53:30","presentation_right","Experiment_block_rightstart","frog.bmp","0","68","36","263","33","384","34","23","2","Acquisiton","34","23","0.2000000000000000111","0.8000000000000000444","IRIF","0","-1","1","16","78","9","","5","11","right","0","31","16","4.5"
"6.4.2","Reversal_Task","1","2021-08-16","20:53:30","fixation","Experiment_block_rightstart","+","0","68","36","263","33","384","34","23","2","Acquisiton","34","23","0.2000000000000000111","0.8000000000000000444","IRIF","0","-1","1","16","78","9","","5","11","right","0","31","16","4.5"
"6.4.2","Reversal_Task","1","2021-08-16","20:53:30","presentation_right","Experiment_block_rightstart","frog.bmp","0","64","36","263","33","255","34","23","2","Acquisiton","34","23","0.2000000000000000111","0.8000000000000000444","IRIF","0","-1","1","17","79","9","","6","11","right","0","31","16","4.5"
"6.4.2","Reversal_Task","1","2021-08-16","20:53:30","fixation","Experiment_block_rightstart","+","0","64","36","263","33","255","34","23","2","Acquisiton","34","23","0.2000000000000000111","0.8000000000000000444","IRIF","0","-1","1","17","79","9","","6","11","right","0","31","16","4.5"
"6.4.2","Reversal_Task","1","2021-08-16","20:53:30","presentation_right","Experiment_block_rightstart","frog.bmp","0","61","36","263","33","148","34","23","2","Acquisiton","34","23","0.2000000000000000111","0.8000000000000000444","IRIF","0","-1","1","18","80","9","","7","11","right","0","31","16","4.5"
"6.4.2","Reversal_Task","1","2021-08-16","20:53:30","fixation","Experiment_block_rightstart","+","0","61","36","263","33","148","34","23","2","Acquisiton","34","23","0.2000000000000000111","0.8000000000000000444","IRIF","0","-1","1","18","80","9","","7","11","right","0","31","16","4.5"
"6.4.2","Reversal_Task","1","2021-08-16","20:53:30","presentation_right","Experiment_block_rightstart","frog.bmp","0","57","36","263","33","175","34","23","2","Acquisiton","34","23","0.2000000000000000111","0.8000000000000000444","IRIF","0","-1","1","19","81","9","","8","11","right","0","31","16","4.5"
"6.4.2","Reversal_Task","1","2021-08-16","20:53:30","fixation","Experiment_block_rightstart","+","0","57","36","263","33","175","34","23","2","Acquisiton","34","23","0.2000000000000000111","0.8000000000000000444","IRIF","0","-1","1","19","81","9","","8","11","right","0","31","16","4.5"
"6.4.2","Reversal_Task","1","2021-08-16","20:53:30","presentation_right","Experiment_block_rightstart","frog.bmp","0","55","36","263","33","149","34","23","2","Acquisiton","34","23","0.2000000000000000111","0.8000000000000000444","IRCF","0","-1","-1","20","82","9","","9","11","right","0","31","16","4.5"
"6.4.2","Reversal_Task","1","2021-08-16","20:53:30","fixation","Experiment_block_rightstart","+","0","55","36","263","33","149","34","23","2","Acquisiton","34","23","0.2000000000000000111","0.8000000000000000444","IRCF","0","-1","-1","20","82","10","","9","11","right","0","31","16","5"
"6.4.2","Reversal_Task","1","2021-08-16","20:53:30","presentation_right","Experiment_block_rightstart","frog.bmp","0","52","36","263","33","116","34","23","2","Acquisiton","34","23","0.2000000000000000111","0.8000000000000000444","IRIF","0","-1","1","21","83","10","","10","11","right","0","31","16","5"
"6.4.2","Reversal_Task","1","2021-08-16","20:53:30","fixation","Experiment_block_rightstart","+","0","52","36","263","33","116","34","23","2","Acquisiton","34","23","0.2000000000000000111","0.8000000000000000444","IRIF","0","-1","1","21","83","10","","10","11","right","0","31","16","5"
"6.4.2","Reversal_Task","1","2021-08-16","20:53:30","presentation_right","Experiment_block_rightstart","frog.bmp","0","50","36","263","33","198","34","23","2","Acquisiton","34","23","0.2000000000000000111","0.8000000000000000444","IRCF","0","-1","-1","22","84","10","","11","11","right","0","31","16","5"
"6.4.2","Reversal_Task","1","2021-08-16","20:53:30","fixation","Experiment_block_rightstart","+","0","50","36","263","33","198","34","23","2","Acquisiton","34","23","0.2000000000000000111","0.8000000000000000444","IRCF","0","-1","-1","22","84","11","","11","11","right","0","31","16","5.5"
"6.4.2","Reversal_Task","1","2021-08-16","20:53:30","presentation_right","Experiment_block_rightstart","frog.bmp","0","52","36","263","36","18","34","23","2","Acquisiton","34","23","0.2000000000000000111","0.8000000000000000444","CRIF","0","1","-1","23","85","11","","11","12","right","0","31","16","5.5"
"6.4.2","Reversal_Task","1","2021-08-16","20:53:30","fixation","Experiment_block_rightstart","+","0","52","36","263","36","18","34","23","2","Acquisiton","34","23","0.2000000000000000111","0.8000000000000000444","CRIF","0","1","-1","23","85","11","","11","12","right","1","31","16","5.5"
"6.4.2","Reversal_Task","1","2021-08-16","20:53:30","presentation_right","Experiment_block_rightstart","frog.bmp","0","54","36","263","36","253","34","23","2","Acquisiton","34","23","0.2000000000000000111","0.8000000000000000444","CRCF","0","1","1","24","86","11","","11","13","right","1","31","16","5.5"
"6.4.2","Reversal_Task","1","2021-08-16","20:53:30","fixation","Experiment_block_rightstart","+","0","54","36","263","36","253","34","23","2","Acquisiton","34","23","0.2000000000000000111","0.8000000000000000444","CRCF","0","1","1","24","86","12","","11","13","right","2","31","16","6"
"6.4.2","Reversal_Task","1","2021-08-16","20:53:30","presentation_right","Experiment_block_rightstart","frog.bmp","0","56","36","263","36","183","34","23","2","Acquisiton","34","23","0.2000000000000000111","0.8000000000000000444","CRIF","0","1","-1","25","87","12","","11","14","right","2","31","16","6"
"6.4.2","Reversal_Task","1","2021-08-16","20:53:30","fixation","Experiment_block_rightstart","+","0","56","36","263","36","183","34","23","2","Acquisiton","34","23","0.2000000000000000111","0.8000000000000000444","CRIF","0","1","-1","25","87","12","","11","14","right","3","31","16","6"
"6.4.2","Reversal_Task","1","2021-08-16","20:53:30","presentation_right","Experiment_block_rightstart","frog.bmp","0","57","36","263","36","143","34","23","2","Acquisiton","34","23","0.2000000000000000111","0.8000000000000000444","CRCF","0","1","1","26","88","12","","11","15","right","3","31","16","6"
"6.4.2","Reversal_Task","1","2021-08-16","20:53:30","fixation","Experiment_block_rightstart","+","0","57","36","263","36","143","34","23","2","Acquisiton","34","23","0.2000000000000000111","0.8000000000000000444","CRCF","0","1","1","26","88","13","","11","15","right","4","31","16","6.5"
"6.4.2","Reversal_Task","1","2021-08-16","20:53:30","presentation_right","Experiment_block_rightstart","frog.bmp","0","59","36","263","36","263","34","23","2","Acquisiton","34","23","0.2000000000000000111","0.8000000000000000444","CRCF","0","1","1","27","89","13","","11","16","right","4","31","16","6.5"
"6.4.2","Reversal_Task","1","2021-08-16","20:53:30","fixation","Experiment_block_rightstart","+","0","59","36","263","36","263","34","23","2","Acquisiton","34","23","0.2000000000000000111","0.8000000000000000444","CRCF","0","1","1","27","89","14","","11","16","right","5","31","16","7"
"6.4.2","Reversal_Task","1","2021-08-16","20:53:30","presentation_right","Experiment_block_rightstart","frog.bmp","0","60","36","263","36","720","34","23","2","Acquisiton","34","23","0.2000000000000000111","0.8000000000000000444","CRCF","0","1","1","28","90","14","","11","17","right","5","31","16","7"
"6.4.2","Reversal_Task","1","2021-08-16","20:53:30","fixation","Experiment_block_rightstart","+","0","60","36","263","36","720","34","23","2","Acquisiton","34","23","0.2000000000000000111","0.8000000000000000444","CRCF","0","1","1","28","90","15","","11","17","right","6","31","16","7.5"
"6.4.2","Reversal_Task","1","2021-08-16","20:53:30","presentation_right","Experiment_block_rightstart","frog.bmp","0","62","36","263","36","518","34","23","2","Acquisiton","34","23","0.2000000000000000111","0.8000000000000000444","CRCF","0","1","1","29","91","15","","11","18","right","6","31","16","7.5"
"6.4.2","Reversal_Task","1","2021-08-16","20:53:30","fixation","Experiment_block_rightstart","+","0","62","36","263","36","518","34","23","2","Acquisiton","34","23","0.2000000000000000111","0.8000000000000000444","CRCF","0","1","1","29","91","16","","11","18","right","7","31","16","8"
"6.4.2","Reversal_Task","1","2021-08-16","20:53:30","presentation_right","Experiment_block_rightstart","frog.bmp","0","63","36","263","36","392","34","23","2","Acquisiton","34","23","0.2000000000000000111","0.8000000000000000444","CRCF","0","1","1","30","92","16","","11","19","right","7","31","16","8"
"6.4.2","Reversal_Task","1","2021-08-16","20:53:30","fixation","Experiment_block_rightstart","+","0","63","36","263","36","392","34","23","2","Acquisiton","34","23","0.2000000000000000111","0.8000000000000000444","CRCF","0","1","1","30","92","17","","11","19","right","8","31","16","8.5"
"6.4.2","Reversal_Task","1","2021-08-16","20:53:30","presentation_right","Experiment_block_rightstart","frog.bmp","0","64","36","263","36","382","34","23","2","Acquisiton","34","23","0.2000000000000000111","0.8000000000000000444","CRIF","0","1","-1","31","93","17","","11","20","right","8","31","16","8.5"
"6.4.2","Reversal_Task","1","2021-08-16","20:53:30","fixation","Experiment_block_rightstart","+","0","64","36","263","36","382","34","23","2","Acquisiton","34","23","0.2000000000000000111","0.8000000000000000444","CRIF","0","1","-1","31","93","17","","11","20","right","9","31","16","8.5"
"6.4.2","Reversal_Task","1","2021-08-16","20:53:30","presentation_left","Experiment_block_rightstart","frog.bmp","0","64","36","243","36","382","34","23","2","Reversal","34","23","0.8000000000000000444","0.2000000000000000111","IRIF","0","-1","1","32","94","17","","11","21","left","9","31","16","8.5"
"6.4.2","Reversal_Task","1","2021-08-16","20:53:30","fixation","Experiment_block_rightstart","+","0","64","36","243","36","382","34","23","2","Reversal","34","23","0.8000000000000000444","0.2000000000000000111","IRIF","0","-1","1","32","94","17","","11","21","left","0","31","16","8.5"
"6.4.2","Reversal_Task","1","2021-08-16","20:53:30","presentation_left","Experiment_block_rightstart","frog.bmp","0","64","36","747","36","382","34","23","2","Reversal","34","23","0.8000000000000000444","0.2000000000000000111","IRIF","0","-1","1","33","95","17","","11","22","left","0","31","16","8.5"
"6.4.2","Reversal_Task","1","2021-08-16","20:53:30","fixation","Experiment_block_rightstart","+","0","64","36","747","36","382","34","23","2","Reversal","34","23","0.8000000000000000444","0.2000000000000000111","IRIF","0","-1","1","33","95","17","","11","22","left","0","31","16","8.5"
"6.4.2","Reversal_Task","1","2021-08-16","20:53:30","presentation_left","Experiment_block_rightstart","frog.bmp","0","64","36","124","36","382","34","23","2","Reversal","34","23","0.8000000000000000444","0.2000000000000000111","IRIF","0","-1","1","34","96","17","","11","23","left","0","31","16","8.5"
"6.4.2","Reversal_Task","1","2021-08-16","20:53:30","fixation","Experiment_block_rightstart","+","0","64","36","124","36","382","34","23","2","Reversal","34","23","0.8000000000000000444","0.2000000000000000111","IRIF","0","-1","1","34","96","17","","11","23","left","0","31","16","8.5"
"6.4.2","Reversal_Task","1","2021-08-16","20:53:30","presentation_left","Experiment_block_rightstart","frog.bmp","0","64","36","148","36","382","34","23","2","Reversal","34","23","0.8000000000000000444","0.2000000000000000111","IRIF","0","-1","1","35","97","17","","11","24","left","0","31","16","8.5"
"6.4.2","Reversal_Task","1","2021-08-16","20:53:30","fixation","Experiment_block_rightstart","+","0","64","36","148","36","382","34","23","2","Reversal","34","23","0.8000000000000000444","0.2000000000000000111","IRIF","0","-1","1","35","97","17","","11","24","left","0","31","16","8.5"
"6.4.2","Reversal_Task","1","2021-08-16","20:53:30","presentation_left","Experiment_block_rightstart","frog.bmp","4","64","33","39","36","382","34","23","2","Reversal","34","23","0.8000000000000000444","0.2000000000000000111","CRCF","0","1","1","36","98","17","","12","24","left","0","31","16","8.5"
"6.4.2","Reversal_Task","1","2021-08-16","20:53:30","fixation","Experiment_block_rightstart","+","4","64","33","39","36","382","34","23","2","Reversal","34","23","0.8000000000000000444","0.2000000000000000111","CRCF","0","1","1","36","98","18","","12","24","left","1","31","16","9"
"6.4.2","Reversal_Task","1","2021-08-16","20:53:30","presentation_left","Experiment_block_rightstart","frog.bmp","8","64","33","109","36","382","34","23","2","Reversal","34","23","0.8000000000000000444","0.2000000000000000111","CRCF","0","1","1","37","99","18","","13","24","left","1","31","16","9"
"6.4.2","Reversal_Task","1","2021-08-16","20:53:30","fixation","Experiment_block_rightstart","+","8","64","33","109","36","382","34","23","2","Reversal","34","23","0.8000000000000000444","0.2000000000000000111","CRCF","0","1","1","37","99","19","","13","24","left","2","31","16","9.5"
"6.4.2","Reversal_Task","1","2021-08-16","20:53:30","presentation_left","Experiment_block_rightstart","frog.bmp","12","64","33","193","36","382","34","23","2","Reversal","34","23","0.8000000000000000444","0.2000000000000000111","CRIF","0","1","-1","38","100","19","","14","24","left","2","31","16","9.5"
"6.4.2","Reversal_Task","1","2021-08-16","20:53:30","fixation","Experiment_block_rightstart","+","12","64","33","193","36","382","34","23","2","Reversal","34","23","0.8000000000000000444","0.2000000000000000111","CRIF","0","1","-1","38","100","19","","14","24","left","3","31","16","9.5"
"6.4.2","Reversal_Task","1","2021-08-16","20:53:30","presentation_left","Experiment_block_rightstart","frog.bmp","15","64","33","132","36","382","34","23","2","Reversal","34","23","0.8000000000000000444","0.2000000000000000111","CRCF","0","1","1","39","101","19","","15","24","left","3","31","16","9.5"
"6.4.2","Reversal_Task","1","2021-08-16","20:53:30","fixation","Experiment_block_rightstart","+","15","64","33","132","36","382","34","23","2","Reversal","34","23","0.8000000000000000444","0.2000000000000000111","CRCF","0","1","1","39","101","20","","15","24","left","4","31","16","10"
"6.4.2","Reversal_Task","1","2021-08-16","20:53:30","presentation_left","Experiment_block_rightstart","frog.bmp","18","64","33","52","36","382","34","23","2","Reversal","34","23","0.8000000000000000444","0.2000000000000000111","CRCF","0","1","1","40","102","20","","16","24","left","4","31","16","10"
"6.4.2","Reversal_Task","1","2021-08-16","20:53:30","fixation","Experiment_block_rightstart","+","18","64","33","52","36","382","34","23","2","Reversal","34","23","0.8000000000000000444","0.2000000000000000111","CRCF","0","1","1","40","102","21","","16","24","left","5","31","16","10.5"
"6.4.2","Reversal_Task","1","2021-08-16","20:53:30","presentation_left","Experiment_block_rightstart","frog.bmp","21","64","33","39","36","382","34","23","2","Reversal","34","23","0.8000000000000000444","0.2000000000000000111","CRCF","0","1","1","41","103","21","","17","24","left","5","31","16","10.5"
"6.4.2","Reversal_Task","1","2021-08-16","20:53:30","fixation","Experiment_block_rightstart","+","21","64","33","39","36","382","34","23","2","Reversal","34","23","0.8000000000000000444","0.2000000000000000111","CRCF","0","1","1","41","103","22","","17","24","left","6","31","16","11"
"6.4.2","Reversal_Task","1","2021-08-16","20:53:30","presentation_left","Experiment_block_rightstart","frog.bmp","24","64","33","64","36","382","34","23","2","Reversal","34","23","0.8000000000000000444","0.2000000000000000111","CRCF","0","1","1","42","104","22","","18","24","left","6","31","16","11"
"6.4.2","Reversal_Task","1","2021-08-16","20:53:30","fixation","Experiment_block_rightstart","+","24","64","33","64","36","382","34","23","2","Reversal","34","23","0.8000000000000000444","0.2000000000000000111","CRCF","0","1","1","42","104","23","","18","24","left","7","31","16","11.5"
"6.4.2","Reversal_Task","1","2021-08-16","20:53:30","presentation_left","Experiment_block_rightstart","frog.bmp","26","64","33","490","36","382","34","23","2","Reversal","34","23","0.8000000000000000444","0.2000000000000000111","CRIF","0","1","-1","43","105","23","","19","24","left","7","31","16","11.5"
"6.4.2","Reversal_Task","1","2021-08-16","20:53:30","fixation","Experiment_block_rightstart","+","26","64","33","490","36","382","34","23","2","Reversal","34","23","0.8000000000000000444","0.2000000000000000111","CRIF","0","1","-1","43","105","23","","19","24","left","8","31","16","11.5"
"6.4.2","Reversal_Task","1","2021-08-16","20:53:30","presentation_left","Experiment_block_rightstart","frog.bmp","29","64","33","318","36","382","34","23","2","Reversal","34","23","0.8000000000000000444","0.2000000000000000111","CRIF","0","1","-1","44","106","23","","20","24","left","8","31","16","11.5"
"6.4.2","Reversal_Task","1","2021-08-16","20:53:30","fixation","Experiment_block_rightstart","+","29","64","33","318","36","382","34","23","2","Reversal","34","23","0.8000000000000000444","0.2000000000000000111","CRIF","0","1","-1","44","106","23","","20","24","left","9","31","16","11.5"
"6.4.2","Reversal_Task","1","2021-08-16","20:53:30","presentation_left","Experiment_block_rightstart","frog.bmp","31","64","33","190","36","382","34","23","2","Reversal","34","23","0.8000000000000000444","0.2000000000000000111","CRCF","0","1","1","45","107","23","","21","24","left","9","31","16","11.5"
"6.4.2","Reversal_Task","1","2021-08-16","20:53:30","fixation","Experiment_block_rightstart","+","31","64","33","190","36","382","34","23","2","Reversal","34","23","0.8000000000000000444","0.2000000000000000111","CRCF","0","1","1","45","107","24","","21","24","left","10","31","16","12"
"6.4.2","Reversal_Task","1","2021-08-16","20:53:30","presentation_left","Experiment_block_rightstart","frog.bmp","33","64","33","59","36","382","34","23","2","Reversal","34","23","0.8000000000000000444","0.2000000000000000111","CRIF","0","1","-1","46","108","24","","22","24","left","10","31","16","12"
"6.4.2","Reversal_Task","1","2021-08-16","20:53:30","fixation","Experiment_block_rightstart","+","33","64","33","59","36","382","34","23","2","Reversal","34","23","0.8000000000000000444","0.2000000000000000111","CRIF","0","1","-1","46","108","24","","22","24","left","11","31","16","12"
"6.4.2","Reversal_Task","1","2021-08-16","20:53:30","presentation_left","Experiment_block_rightstart","frog.bmp","35","64","33","214","36","382","34","23","2","Reversal","34","23","0.8000000000000000444","0.2000000000000000111","CRCF","0","1","1","47","109","24","","23","24","left","11","31","16","12"
"6.4.2","Reversal_Task","1","2021-08-16","20:53:30","fixation","Experiment_block_rightstart","+","35","64","33","214","36","382","34","23","2","Reversal","34","23","0.8000000000000000444","0.2000000000000000111","CRCF","0","1","1","47","109","25","","23","24","left","12","31","16","12.5"
"6.4.2","Reversal_Task","1","2021-08-16","20:53:30","presentation_left","Experiment_block_rightstart","frog.bmp","37","64","33","162","36","382","34","23","2","Reversal","34","23","0.8000000000000000444","0.2000000000000000111","CRCF","0","1","1","48","110","25","","24","24","left","12","31","16","12.5"
"6.4.2","Reversal_Task","1","2021-08-16","20:53:30","fixation","Experiment_block_rightstart","+","37","64","33","162","36","382","34","23","2","Reversal","34","23","0.8000000000000000444","0.2000000000000000111","CRCF","0","1","1","48","110","26","","24","24","left","13","31","16","13"
"6.4.2","Reversal_Task","1","2021-08-16","20:53:30","presentation_left","Experiment_block_rightstart","frog.bmp","36","64","36","241","36","382","34","23","2","Reversal","34","23","0.8000000000000000444","0.2000000000000000111","IRCF","0","-1","-1","49","111","26","","24","25","left","13","31","16","13"
"6.4.2","Reversal_Task","1","2021-08-16","20:53:30","fixation","Experiment_block_rightstart","+","36","64","36","241","36","382","34","23","2","Reversal","34","23","0.8000000000000000444","0.2000000000000000111","IRCF","0","-1","-1","49","111","27","","24","25","left","0","31","16","13.5"
"6.4.2","Reversal_Task","1","2021-08-16","20:53:30","presentation_left","Experiment_block_rightstart","frog.bmp","37","64","33","409","36","382","34","23","2","Reversal","34","23","0.8000000000000000444","0.2000000000000000111","CRCF","0","1","1","50","112","27","","25","25","left","0","31","16","13.5"
"6.4.2","Reversal_Task","1","2021-08-16","20:53:30","fixation","Experiment_block_rightstart","+","37","64","33","409","36","382","34","23","3","Reversal","34","23","0.8000000000000000444","0.2000000000000000111","CRCF","0","1","1","50","112","28","","25","25","left","1","31","16","14"
"6.4.2","Reversal_Task","1","2021-08-16","20:53:30","reset_trial","Experiment_block_rightstart","Press SPACE to continue","37","64","33","409","36","382","34","23","3","Reversal","34","23","0.8000000000000000444","0.2000000000000000111","CRCF","0","1","1","50","112","28","","0","0","left","1","26","16","14"
"6.4.2","Reversal_Task","1","2021-08-16","20:53:30","presentation_left","Experiment_block_leftstart","wheelbarrow.bmp","100","64","33","603","36","382","10","16","3","Acquisiton","10","16","0.8000000000000000444","0.2000000000000000111","CRCF","0","1","1","1","113","0","","1","0","left","1","26","30","0"
"6.4.2","Reversal_Task","1","2021-08-16","20:53:30","fixation","Experiment_block_leftstart","+","100","64","33","603","36","382","10","16","3","Acquisiton","10","16","0.8000000000000000444","0.2000000000000000111","CRCF","0","1","1","1","113","1","","1","0","left","2","26","30","0.5"
"6.4.2","Reversal_Task","1","2021-08-16","20:53:30","presentation_left","Experiment_block_leftstart","wheelbarrow.bmp","100","64","33","392","36","382","10","16","3","Acquisiton","10","16","0.8000000000000000444","0.2000000000000000111","CRCF","0","1","1","2","114","1","","2","0","left","2","26","30","0.5"
"6.4.2","Reversal_Task","1","2021-08-16","20:53:30","fixation","Experiment_block_leftstart","+","100","64","33","392","36","382","10","16","3","Acquisiton","10","16","0.8000000000000000444","0.2000000000000000111","CRCF","0","1","1","2","114","2","","2","0","left","3","26","30","1"
"6.4.2","Reversal_Task","1","2021-08-16","20:53:30","presentation_left","Experiment_block_leftstart","wheelbarrow.bmp","100","64","33","203","36","382","10","16","3","Acquisiton","10","16","0.8000000000000000444","0.2000000000000000111","CRCF","0","1","1","3","115","2","","3","0","left","3","26","30","1"
"6.4.2","Reversal_Task","1","2021-08-16","20:53:30","fixation","Experiment_block_leftstart","+","100","64","33","203","36","382","10","16","3","Acquisiton","10","16","0.8000000000000000444","0.2000000000000000111","CRCF","0","1","1","3","115","3","","3","0","left","4","26","30","1.5"
"6.4.2","Reversal_Task","1","2021-08-16","20:53:30","presentation_left","Experiment_block_leftstart","wheelbarrow.bmp","100","64","33","237","36","382","10","16","3","Acquisiton","10","16","0.8000000000000000444","0.2000000000000000111","CRCF","0","1","1","4","116","3","","4","0","left","4","26","30","1.5"
"6.4.2","Reversal_Task","1","2021-08-16","20:53:30","fixation","Experiment_block_leftstart","+","100","64","33","237","36","382","10","16","3","Acquisiton","10","16","0.8000000000000000444","0.2000000000000000111","CRCF","0","1","1","4","116","4","","4","0","left","5","26","30","2"
"6.4.2","Reversal_Task","1","2021-08-16","20:53:30","presentation_left","Experiment_block_leftstart","wheelbarrow.bmp","80","64","36","180","36","382","10","16","3","Acquisiton","10","16","0.8000000000000000444","0.2000000000000000111","IRIF","0","-1","1","5","117","4","","4","1","left","5","26","30","2"
"6.4.2","Reversal_Task","1","2021-08-16","20:53:30","fixation","Experiment_block_leftstart","+","80","64","36","180","36","382","10","16","3","Acquisiton","10","16","0.8000000000000000444","0.2000000000000000111","IRIF","0","-1","1","5","117","4","","4","1","left","0","26","30","2"
"6.4.2","Reversal_Task","1","2021-08-16","20:53:30","presentation_left","Experiment_block_leftstart","wheelbarrow.bmp","83","64","33","139","36","382","10","16","3","Acquisiton","10","16","0.8000000000000000444","0.2000000000000000111","CRCF","0","1","1","6","118","4","","5","1","left","0","26","30","2"
"6.4.2","Reversal_Task","1","2021-08-16","20:53:30","fixation","Experiment_block_leftstart","+","83","64","33","139","36","382","10","16","3","Acquisiton","10","16","0.8000000000000000444","0.2000000000000000111","CRCF","0","1","1","6","118","5","","5","1","left","1","26","30","2.5"
"6.4.2","Reversal_Task","1","2021-08-16","20:53:30","presentation_left","Experiment_block_leftstart","wheelbarrow.bmp","85","64","33","274","36","382","10","16","3","Acquisiton","10","16","0.8000000000000000444","0.2000000000000000111","CRCF","0","1","1","7","119","5","","6","1","left","1","26","30","2.5"
"6.4.2","Reversal_Task","1","2021-08-16","20:53:30","fixation","Experiment_block_leftstart","+","85","64","33","274","36","382","10","16","3","Acquisiton","10","16","0.8000000000000000444","0.2000000000000000111","CRCF","0","1","1","7","119","6","","6","1","left","2","26","30","3"
"6.4.2","Reversal_Task","1","2021-08-16","20:53:30","presentation_left","Experiment_block_leftstart","wheelbarrow.bmp","87","64","33","397","36","382","10","16","3","Acquisiton","10","16","0.8000000000000000444","0.2000000000000000111","CRCF","0","1","1","8","120","6","","7","1","left","2","26","30","3"
"6.4.2","Reversal_Task","1","2021-08-16","20:53:30","fixation","Experiment_block_leftstart","+","87","64","33","397","36","382","10","16","3","Acquisiton","10","16","0.8000000000000000444","0.2000000000000000111","CRCF","0","1","1","8","120","7","","7","1","left","3","26","30","3.5"
"6.4.2","Reversal_Task","1","2021-08-16","20:53:30","presentation_left","Experiment_block_leftstart","wheelbarrow.bmp","88","64","33","37","36","382","10","16","3","Acquisiton","10","16","0.8000000000000000444","0.2000000000000000111","CRCF","0","1","1","9","121","7","","8","1","left","3","26","30","3.5"
"6.4.2","Reversal_Task","1","2021-08-16","20:53:30","fixation","Experiment_block_leftstart","+","88","64","33","37","36","382","10","16","3","Acquisiton","10","16","0.8000000000000000444","0.2000000000000000111","CRCF","0","1","1","9","121","8","","8","1","left","4","26","30","4"
"6.4.2","Reversal_Task","1","2021-08-16","20:53:30","presentation_left","Experiment_block_leftstart","wheelbarrow.bmp","90","64","33","120","36","382","10","16","3","Acquisiton","10","16","0.8000000000000000444","0.2000000000000000111","CRIF","0","1","-1","10","122","8","","9","1","left","4","26","30","4"
"6.4.2","Reversal_Task","1","2021-08-16","20:53:30","fixation","Experiment_block_leftstart","+","90","64","33","120","36","382","10","16","3","Acquisiton","10","16","0.8000000000000000444","0.2000000000000000111","CRIF","0","1","-1","10","122","8","","9","1","left","5","26","30","4"
"6.4.2","Reversal_Task","1","2021-08-16","20:53:30","presentation_left","Experiment_block_leftstart","wheelbarrow.bmp","90","64","33","56","36","382","10","16","3","Acquisiton","10","16","0.8000000000000000444","0.2000000000000000111","CRCF","0","1","1","11","123","8","","10","1","left","5","26","30","4"
"6.4.2","Reversal_Task","1","2021-08-16","20:53:30","fixation","Experiment_block_leftstart","+","90","64","33","56","36","382","10","16","3","Acquisiton","10","16","0.8000000000000000444","0.2000000000000000111","CRCF","0","1","1","11","123","9","","10","1","left","6","26","30","4.5"
"6.4.2","Reversal_Task","1","2021-08-16","20:53:30","presentation_left","Experiment_block_leftstart","wheelbarrow.bmp","91","64","33","155","36","382","10","16","3","Acquisiton","10","16","0.8000000000000000444","0.2000000000000000111","CRCF","0","1","1","12","124","9","","11","1","left","6","26","30","4.5"
"6.4.2","Reversal_Task","1","2021-08-16","20:53:30","fixation","Experiment_block_leftstart","+","91","64","33","155","36","382","10","16","3","Acquisiton","10","16","0.8000000000000000444","0.2000000000000000111","CRCF","0","1","1","12","124","10","","11","1","left","7","26","30","5"
"6.4.2","Reversal_Task","1","2021-08-16","20:53:30","presentation_left","Experiment_block_leftstart","wheelbarrow.bmp","92","64","33","385","36","382","10","16","3","Acquisiton","10","16","0.8000000000000000444","0.2000000000000000111","CRCF","0","1","1","13","125","10","","12","1","left","7","26","30","5"
"6.4.2","Reversal_Task","1","2021-08-16","20:53:30","fixation","Experiment_block_leftstart","+","92","64","33","385","36","382","10","16","3","Acquisiton","10","16","0.8000000000000000444","0.2000000000000000111","CRCF","0","1","1","13","125","11","","12","1","left","8","26","30","5.5"
"6.4.2","Reversal_Task","1","2021-08-16","20:53:30","presentation_left","Experiment_block_leftstart","wheelbarrow.bmp","92","64","33","167","36","382","10","16","3","Acquisiton","10","16","0.8000000000000000444","0.2000000000000000111","CRCF","0","1","1","14","126","11","","13","1","left","8","26","30","5.5"
"6.4.2","Reversal_Task","1","2021-08-16","20:53:30","fixation","Experiment_block_leftstart","+","92","64","33","167","36","382","10","16","3","Acquisiton","10","16","0.8000000000000000444","0.2000000000000000111","CRCF","0","1","1","14","126","12","","13","1","left","9","26","30","6"
"6.4.2","Reversal_Task","1","2021-08-16","20:53:30","presentation_left","Experiment_block_leftstart","wheelbarrow.bmp","93","64","33","255","36","382","10","16","3","Acquisiton","10","16","0.8000000000000000444","0.2000000000000000111","CRCF","0","1","1","15","127","12","","14","1","left","9","26","30","6"
"6.4.2","Reversal_Task","1","2021-08-16","20:53:30","fixation","Experiment_block_leftstart","+","93","64","33","255","36","382","10","16","3","Acquisiton","10","16","0.8000000000000000444","0.2000000000000000111","CRCF","0","1","1","15","127","13","","14","1","left","10","26","30","6.5"
"6.4.2","Reversal_Task","1","2021-08-16","20:53:30","presentation_left","Experiment_block_leftstart","wheelbarrow.bmp","93","64","33","226","36","382","10","16","3","Acquisiton","10","16","0.8000000000000000444","0.2000000000000000111","CRCF","0","1","1","16","128","13","","15","1","left","10","26","30","6.5"
"6.4.2","Reversal_Task","1","2021-08-16","20:53:30","fixation","Experiment_block_leftstart","+","93","64","33","226","36","382","10","16","3","Acquisiton","10","16","0.8000000000000000444","0.2000000000000000111","CRCF","0","1","1","16","128","14","","15","1","left","11","26","30","7"
"6.4.2","Reversal_Task","1","2021-08-16","20:53:30","presentation_left","Experiment_block_leftstart","wheelbarrow.bmp","94","64","33","431","36","382","10","16","3","Acquisiton","10","16","0.8000000000000000444","0.2000000000000000111","CRCF","0","1","1","17","129","14","","16","1","left","11","26","30","7"
"6.4.2","Reversal_Task","1","2021-08-16","20:53:30","fixation","Experiment_block_leftstart","+","94","64","33","431","36","382","10","16","3","Acquisiton","10","16","0.8000000000000000444","0.2000000000000000111","CRCF","0","1","1","17","129","15","","16","1","left","12","26","30","7.5"
"6.4.2","Reversal_Task","1","2021-08-16","20:53:30","presentation_left","Experiment_block_leftstart","wheelbarrow.bmp","94","64","33","543","36","382","10","16","3","Acquisiton","10","16","0.8000000000000000444","0.2000000000000000111","CRIF","0","1","-1","18","130","15","","17","1","left","12","26","30","7.5"
"6.4.2","Reversal_Task","1","2021-08-16","20:53:30","fixation","Experiment_block_leftstart","+","94","64","33","543","36","382","10","16","3","Acquisiton","10","16","0.8000000000000000444","0.2000000000000000111","CRIF","0","1","-1","18","130","15","","17","1","left","13","26","30","7.5"
"6.4.2","Reversal_Task","1","2021-08-16","20:53:30","presentation_left","Experiment_block_leftstart","wheelbarrow.bmp","94","64","33","286","36","382","10","16","3","Acquisiton","10","16","0.8000000000000000444","0.2000000000000000111","CRCF","0","1","1","19","131","15","","18","1","left","13","26","30","7.5"
"6.4.2","Reversal_Task","1","2021-08-16","20:53:30","fixation","Experiment_block_leftstart","+","94","64","33","286","36","382","10","16","3","Acquisiton","10","16","0.8000000000000000444","0.2000000000000000111","CRCF","0","1","1","19","131","16","","18","1","left","14","26","30","8"
"6.4.2","Reversal_Task","1","2021-08-16","20:53:30","presentation_left","Experiment_block_leftstart","wheelbarrow.bmp","95","64","33","428","36","382","10","16","3","Acquisiton","10","16","0.8000000000000000444","0.2000000000000000111","CRCF","0","1","1","20","132","16","","19","1","left","14","26","30","8"
"6.4.2","Reversal_Task","1","2021-08-16","20:53:30","fixation","Experiment_block_leftstart","+","95","64","33","428","36","382","10","16","3","Acquisiton","10","16","0.8000000000000000444","0.2000000000000000111","CRCF","0","1","1","20","132","17","","19","1","left","15","26","30","8.5"
"6.4.2","Reversal_Task","1","2021-08-16","20:53:30","presentation_left","Experiment_block_leftstart","wheelbarrow.bmp","95","64","33","26","36","382","10","16","3","Acquisiton","10","16","0.8000000000000000444","0.2000000000000000111","CRCF","0","1","1","21","133","17","","20","1","left","15","26","30","8.5"
"6.4.2","Reversal_Task","1","2021-08-16","20:53:30","fixation","Experiment_block_leftstart","+","95","64","33","26","36","382","10","16","3","Acquisiton","10","16","0.8000000000000000444","0.2000000000000000111","CRCF","0","1","1","21","133","18","","20","1","left","16","26","30","9"
"6.4.2","Reversal_Task","1","2021-08-16","20:53:30","presentation_left","Experiment_block_leftstart","wheelbarrow.bmp","95","64","33","833","36","382","10","16","3","Acquisiton","10","16","0.8000000000000000444","0.2000000000000000111","CRCF","0","1","1","22","134","18","","21","1","left","16","26","30","9"
"6.4.2","Reversal_Task","1","2021-08-16","20:53:30","fixation","Experiment_block_leftstart","+","95","64","33","833","36","382","10","16","3","Acquisiton","10","16","0.8000000000000000444","0.2000000000000000111","CRCF","0","1","1","22","134","19","","21","1","left","17","26","30","9.5"
"6.4.2","Reversal_Task","1","2021-08-16","20:53:30","presentation_left","Experiment_block_leftstart","wheelbarrow.bmp","95","64","33","503","36","382","10","16","3","Acquisiton","10","16","0.8000000000000000444","0.2000000000000000111","CRIF","0","1","-1","23","135","19","","22","1","left","17","26","30","9.5"
"6.4.2","Reversal_Task","1","2021-08-16","20:53:30","fixation","Experiment_block_leftstart","+","95","64","33","503","36","382","10","16","3","Acquisiton","10","16","0.8000000000000000444","0.2000000000000000111","CRIF","0","1","-1","23","135","19","","22","1","left","18","26","30","9.5"
"6.4.2","Reversal_Task","1","2021-08-16","20:53:30","presentation_left","Experiment_block_leftstart","wheelbarrow.bmp","95","64","33","426","36","382","10","16","3","Acquisiton","10","16","0.8000000000000000444","0.2000000000000000111","CRCF","0","1","1","24","136","19","","23","1","left","18","26","30","9.5"
"6.4.2","Reversal_Task","1","2021-08-16","20:53:30","fixation","Experiment_block_leftstart","+","95","64","33","426","36","382","10","16","3","Acquisiton","10","16","0.8000000000000000444","0.2000000000000000111","CRCF","0","1","1","24","136","20","","23","1","left","19","26","30","10"
"6.4.2","Reversal_Task","1","2021-08-16","20:53:30","presentation_left","Experiment_block_leftstart","wheelbarrow.bmp","96","64","33","522","36","382","10","16","3","Acquisiton","10","16","0.8000000000000000444","0.2000000000000000111","CRCF","0","1","1","25","137","20","","24","1","left","19","26","30","10"
"6.4.2","Reversal_Task","1","2021-08-16","20:53:30","fixation","Experiment_block_leftstart","+","96","64","33","522","36","382","10","16","3","Acquisiton","10","16","0.8000000000000000444","0.2000000000000000111","CRCF","0","1","1","25","137","21","","24","1","left","20","26","30","10.5"
"6.4.2","Reversal_Task","1","2021-08-16","20:53:30","presentation_left","Experiment_block_leftstart","wheelbarrow.bmp","96","64","33","1107","36","382","10","16","3","Acquisiton","10","16","0.8000000000000000444","0.2000000000000000111","CRCF","0","1","1","26","138","21","","25","1","left","20","26","30","10.5"
"6.4.2","Reversal_Task","1","2021-08-16","20:53:30","fixation","Experiment_block_leftstart","+","96","64","33","1107","36","382","10","16","3","Acquisiton","10","16","0.8000000000000000444","0.2000000000000000111","CRCF","0","1","1","26","138","22","","25","1","left","21","26","30","11"
"6.4.2","Reversal_Task","1","2021-08-16","20:53:30","presentation_right","Experiment_block_leftstart","wheelbarrow.bmp","96","0","33","1107","33","1218","10","16","3","Reversal","10","16","0.2000000000000000111","0.8000000000000000444","IRCF","0","-1","-1","27","139","22","","26","1","right","21","26","30","11"
"6.4.2","Reversal_Task","1","2021-08-16","20:53:30","fixation","Experiment_block_leftstart","+","96","0","33","1107","33","1218","10","16","3","Reversal","10","16","0.2000000000000000111","0.8000000000000000444","IRCF","0","-1","-1","27","139","23","","26","1","right","0","26","30","11.5"
"6.4.2","Reversal_Task","1","2021-08-16","20:53:30","presentation_right","Experiment_block_leftstart","wheelbarrow.bmp","96","0","33","1107","33","0","10","16","3","Reversal","10","16","0.2000000000000000111","0.8000000000000000444","IRIF","0","-1","1","28","140","23","","27","1","right","0","26","30","11.5"
"6.4.2","Reversal_Task","1","2021-08-16","20:53:30","fixation","Experiment_block_leftstart","+","96","0","33","1107","33","0","10","16","3","Reversal","10","16","0.2000000000000000111","0.8000000000000000444","IRIF","0","-1","1","28","140","23","","27","1","right","0","26","30","11.5"
"6.4.2","Reversal_Task","1","2021-08-16","20:53:30","presentation_right","Experiment_block_leftstart","wheelbarrow.bmp","96","0","33","1107","33","107","10","16","3","Reversal","10","16","0.2000000000000000111","0.8000000000000000444","IRCF","0","-1","-1","29","141","23","","28","1","right","0","26","30","11.5"
"6.4.2","Reversal_Task","1","2021-08-16","20:53:30","fixation","Experiment_block_leftstart","+","96","0","33","1107","33","107","10","16","3","Reversal","10","16","0.2000000000000000111","0.8000000000000000444","IRCF","0","-1","-1","29","141","24","","28","1","right","0","26","30","12"
"6.4.2","Reversal_Task","1","2021-08-16","20:53:30","presentation_right","Experiment_block_leftstart","wheelbarrow.bmp","96","0","33","1107","33","105","10","16","3","Reversal","10","16","0.2000000000000000111","0.8000000000000000444","IRCF","0","-1","-1","30","142","24","","29","1","right","0","26","30","12"
"6.4.2","Reversal_Task","1","2021-08-16","20:53:30","fixation","Experiment_block_leftstart","+","96","0","33","1107","33","105","10","16","3","Reversal","10","16","0.2000000000000000111","0.8000000000000000444","IRCF","0","-1","-1","30","142","25","","29","1","right","0","26","30","12.5"
"6.4.2","Reversal_Task","1","2021-08-16","20:53:30","presentation_right","Experiment_block_leftstart","wheelbarrow.bmp","96","0","33","1107","33","204","10","16","3","Reversal","10","16","0.2000000000000000111","0.8000000000000000444","IRCF","0","-1","-1","31","143","25","","30","1","right","0","26","30","12.5"
"6.4.2","Reversal_Task","1","2021-08-16","20:53:30","fixation","Experiment_block_leftstart","+","96","0","33","1107","33","204","10","16","3","Reversal","10","16","0.2000000000000000111","0.8000000000000000444","IRCF","0","-1","-1","31","143","26","","30","1","right","0","26","30","13"
"6.4.2","Reversal_Task","1","2021-08-16","20:53:30","presentation_right","Experiment_block_leftstart","wheelbarrow.bmp","96","0","33","1107","33","1126","10","16","3","Reversal","10","16","0.2000000000000000111","0.8000000000000000444","IRIF","0","-1","1","32","144","26","","31","1","right","0","26","30","13"
"6.4.2","Reversal_Task","1","2021-08-16","20:53:30","fixation","Experiment_block_leftstart","+","96","0","33","1107","33","1126","10","16","3","Reversal","10","16","0.2000000000000000111","0.8000000000000000444","IRIF","0","-1","1","32","144","26","","31","1","right","0","26","30","13"
"6.4.2","Reversal_Task","1","2021-08-16","20:53:30","presentation_right","Experiment_block_leftstart","wheelbarrow.bmp","96","0","33","1107","33","1162","10","16","3","Reversal","10","16","0.2000000000000000111","0.8000000000000000444","IRIF","0","-1","1","33","145","26","","32","1","right","0","26","30","13"
"6.4.2","Reversal_Task","1","2021-08-16","20:53:30","fixation","Experiment_block_leftstart","+","96","0","33","1107","33","1162","10","16","3","Reversal","10","16","0.2000000000000000111","0.8000000000000000444","IRIF","0","-1","1","33","145","26","","32","1","right","0","26","30","13"
"6.4.2","Reversal_Task","1","2021-08-16","20:53:30","presentation_right","Experiment_block_leftstart","wheelbarrow.bmp","96","12","33","1107","36","180","10","16","3","Reversal","10","16","0.2000000000000000111","0.8000000000000000444","CRCF","0","1","1","34","146","26","","32","2","right","0","26","30","13"
"6.4.2","Reversal_Task","1","2021-08-16","20:53:30","fixation","Experiment_block_leftstart","+","96","12","33","1107","36","180","10","16","3","Reversal","10","16","0.2000000000000000111","0.8000000000000000444","CRCF","0","1","1","34","146","27","","32","2","right","1","26","30","13.5"
"6.4.2","Reversal_Task","1","2021-08-16","20:53:30","presentation_right","Experiment_block_leftstart","wheelbarrow.bmp","96","22","33","1107","36","195","10","16","3","Reversal","10","16","0.2000000000000000111","0.8000000000000000444","CRIF","0","1","-1","35","147","27","","32","3","right","1","26","30","13.5"
"6.4.2","Reversal_Task","1","2021-08-16","20:53:30","fixation","Experiment_block_leftstart","+","96","22","33","1107","36","195","10","16","3","Reversal","10","16","0.2000000000000000111","0.8000000000000000444","CRIF","0","1","-1","35","147","27","","32","3","right","2","26","30","13.5"
"6.4.2","Reversal_Task","1","2021-08-16","20:53:30","presentation_right","Experiment_block_leftstart","wheelbarrow.bmp","96","30","33","1107","36","38","10","16","3","Reversal","10","16","0.2000000000000000111","0.8000000000000000444","CRCF","0","1","1","36","148","27","","32","4","right","2","26","30","13.5"
"6.4.2","Reversal_Task","1","2021-08-16","20:53:30","fixation","Experiment_block_leftstart","+","96","30","33","1107","36","38","10","16","3","Reversal","10","16","0.2000000000000000111","0.8000000000000000444","CRCF","0","1","1","36","148","28","","32","4","right","3","26","30","14"
"6.4.2","Reversal_Task","1","2021-08-16","20:53:30","presentation_right","Experiment_block_leftstart","wheelbarrow.bmp","96","36","33","1107","36","726","10","16","3","Reversal","10","16","0.2000000000000000111","0.8000000000000000444","CRCF","0","1","1","37","149","28","","32","5","right","3","26","30","14"
"6.4.2","Reversal_Task","1","2021-08-16","20:53:30","fixation","Experiment_block_leftstart","+","96","36","33","1107","36","726","10","16","3","Reversal","10","16","0.2000000000000000111","0.8000000000000000444","CRCF","0","1","1","37","149","29","","32","5","right","4","26","30","14.5"
"6.4.2","Reversal_Task","1","2021-08-16","20:53:30","presentation_right","Experiment_block_leftstart","wheelbarrow.bmp","96","41","33","1107","36","485","10","16","3","Reversal","10","16","0.2000000000000000111","0.8000000000000000444","CRCF","0","1","1","38","150","29","","32","6","right","4","26","30","14.5"
"6.4.2","Reversal_Task","1","2021-08-16","20:53:30","fixation","Experiment_block_leftstart","+","96","41","33","1107","36","485","10","16","3","Reversal","10","16","0.2000000000000000111","0.8000000000000000444","CRCF","0","1","1","38","150","30","","32","6","right","5","26","30","15"
"6.4.2","Reversal_Task","1","2021-08-16","20:53:30","presentation_right","Experiment_block_leftstart","wheelbarrow.bmp","96","46","33","1107","36","223","10","16","3","Reversal","10","16","0.2000000000000000111","0.8000000000000000444","CRCF","0","1","1","39","151","30","","32","7","right","5","26","30","15"
"6.4.2","Reversal_Task","1","2021-08-16","20:53:30","fixation","Experiment_block_leftstart","+","96","46","33","1107","36","223","10","16","3","Reversal","10","16","0.2000000000000000111","0.8000000000000000444","CRCF","0","1","1","39","151","31","","32","7","right","6","26","30","15.5"
"6.4.2","Reversal_Task","1","2021-08-16","20:53:30","presentation_right","Experiment_block_leftstart","wheelbarrow.bmp","96","50","33","1107","36","329","10","16","3","Reversal","10","16","0.2000000000000000111","0.8000000000000000444","CRCF","0","1","1","40","152","31","","32","8","right","6","26","30","15.5"
"6.4.2","Reversal_Task","1","2021-08-16","20:53:30","fixation","Experiment_block_leftstart","+","96","50","33","1107","36","329","10","16","3","Reversal","10","16","0.2000000000000000111","0.8000000000000000444","CRCF","0","1","1","40","152","32","","32","8","right","7","26","30","16"
"6.4.2","Reversal_Task","1","2021-08-16","20:53:30","presentation_right","Experiment_block_leftstart","wheelbarrow.bmp","96","53","33","1107","36","127","10","16","3","Reversal","10","16","0.2000000000000000111","0.8000000000000000444","CRCF","0","1","1","41","153","32","","32","9","right","7","26","30","16"
"6.4.2","Reversal_Task","1","2021-08-16","20:53:30","fixation","Experiment_block_leftstart","+","96","53","33","1107","36","127","10","16","3","Reversal","10","16","0.2000000000000000111","0.8000000000000000444","CRCF","0","1","1","41","153","33","","32","9","right","8","26","30","16.5"
"6.4.2","Reversal_Task","1","2021-08-16","20:53:30","presentation_right","Experiment_block_leftstart","wheelbarrow.bmp","96","56","33","1107","36","59","10","16","3","Reversal","10","16","0.2000000000000000111","0.8000000000000000444","CRCF","0","1","1","42","154","33","","32","10","right","8","26","30","16.5"
"6.4.2","Reversal_Task","1","2021-08-16","20:53:30","fixation","Experiment_block_leftstart","+","96","56","33","1107","36","59","10","16","3","Reversal","10","16","0.2000000000000000111","0.8000000000000000444","CRCF","0","1","1","42","154","34","","32","10","right","9","26","30","17"
"6.4.2","Reversal_Task","1","2021-08-16","20:53:30","presentation_right","Experiment_block_leftstart","wheelbarrow.bmp","96","58","33","1107","36","22","10","16","3","Reversal","10","16","0.2000000000000000111","0.8000000000000000444","CRCF","0","1","1","43","155","34","","32","11","right","9","26","30","17"
"6.4.2","Reversal_Task","1","2021-08-16","20:53:30","fixation","Experiment_block_leftstart","+","96","58","33","1107","36","22","10","16","3","Reversal","10","16","0.2000000000000000111","0.8000000000000000444","CRCF","0","1","1","43","155","35","","32","11","right","10","26","30","17.5"
"6.4.2","Reversal_Task","1","2021-08-16","20:53:30","presentation_right","Experiment_block_leftstart","wheelbarrow.bmp","96","61","33","1107","36","402","10","16","3","Reversal","10","16","0.2000000000000000111","0.8000000000000000444","CRCF","0","1","1","44","156","35","","32","12","right","10","26","30","17.5"
"6.4.2","Reversal_Task","1","2021-08-16","20:53:30","fixation","Experiment_block_leftstart","+","96","61","33","1107","36","402","10","16","3","Reversal","10","16","0.2000000000000000111","0.8000000000000000444","CRCF","0","1","1","44","156","36","","32","12","right","11","26","30","18"
"6.4.2","Reversal_Task","1","2021-08-16","20:53:30","presentation_right","Experiment_block_leftstart","wheelbarrow.bmp","96","63","33","1107","36","179","10","16","3","Reversal","10","16","0.2000000000000000111","0.8000000000000000444","CRCF","0","1","1","45","157","36","","32","13","right","11","26","30","18"
"6.4.2","Reversal_Task","1","2021-08-16","20:53:30","fixation","Experiment_block_leftstart","+","96","63","33","1107","36","179","10","16","3","Reversal","10","16","0.2000000000000000111","0.8000000000000000444","CRCF","0","1","1","45","157","37","","32","13","right","12","26","30","18.5"
"6.4.2","Reversal_Task","1","2021-08-16","20:53:30","presentation_right","Experiment_block_leftstart","wheelbarrow.bmp","96","65","33","1107","36","104","10","16","3","Reversal","10","16","0.2000000000000000111","0.8000000000000000444","CRIF","0","1","-1","46","158","37","","32","14","right","12","26","30","18.5"
"6.4.2","Reversal_Task","1","2021-08-16","20:53:30","fixation","Experiment_block_leftstart","+","96","65","33","1107","36","104","10","16","3","Reversal","10","16","0.2000000000000000111","0.8000000000000000444","CRIF","0","1","-1","46","158","37","","32","14","right","13","26","30","18.5"
"6.4.2","Reversal_Task","1","2021-08-16","20:53:30","presentation_right","Experiment_block_leftstart","wheelbarrow.bmp","96","66","33","1107","36","586","10","16","3","Reversal","10","16","0.2000000000000000111","0.8000000000000000444","CRCF","0","1","1","47","159","37","","32","15","right","13","26","30","18.5"
"6.4.2","Reversal_Task","1","2021-08-16","20:53:30","fixation","Experiment_block_leftstart","+","96","66","33","1107","36","586","10","16","3","Reversal","10","16","0.2000000000000000111","0.8000000000000000444","CRCF","0","1","1","47","159","38","","32","15","right","14","26","30","19"
"6.4.2","Reversal_Task","1","2021-08-16","20:53:30","presentation_right","Experiment_block_leftstart","wheelbarrow.bmp","96","68","33","1107","36","236","10","16","3","Reversal","10","16","0.2000000000000000111","0.8000000000000000444","CRCF","0","1","1","48","160","38","","32","16","right","14","26","30","19"
"6.4.2","Reversal_Task","1","2021-08-16","20:53:30","fixation","Experiment_block_leftstart","+","96","68","33","1107","36","236","10","16","3","Reversal","10","16","0.2000000000000000111","0.8000000000000000444","CRCF","0","1","1","48","160","39","","32","16","right","15","26","30","19.5"
"6.4.2","Reversal_Task","1","2021-08-16","20:53:30","presentation_right","Experiment_block_leftstart","wheelbarrow.bmp","96","69","33","1107","36","358","10","16","3","Reversal","10","16","0.2000000000000000111","0.8000000000000000444","CRCF","0","1","1","49","161","39","","32","17","right","15","26","30","19.5"
"6.4.2","Reversal_Task","1","2021-08-16","20:53:30","fixation","Experiment_block_leftstart","+","96","69","33","1107","36","358","10","16","3","Reversal","10","16","0.2000000000000000111","0.8000000000000000444","CRCF","0","1","1","49","161","40","","32","17","right","16","26","30","20"
"6.4.2","Reversal_Task","1","2021-08-16","20:53:30","presentation_right","Experiment_block_leftstart","wheelbarrow.bmp","96","70","33","1107","36","96","10","16","3","Reversal","10","16","0.2000000000000000111","0.8000000000000000444","CRCF","0","1","1","50","162","40","","32","18","right","16","26","30","20"
"6.4.2","Reversal_Task","1","2021-08-16","20:53:30","fixation","Experiment_block_leftstart","+","96","70","33","1107","36","96","10","16","4","Reversal","10","16","0.2000000000000000111","0.8000000000000000444","CRCF","0","1","1","50","162","41","","32","18","right","17","26","30","20.5"
"6.4.2","Reversal_Task","1","2021-08-16","20:53:30","reset_trial","Experiment_block_leftstart","Press SPACE to continue","96","70","33","1107","36","96","10","16","4","Reversal","10","16","0.2000000000000000111","0.8000000000000000444","CRCF","0","1","1","50","162","41","","0","0","right","17","30","30","20.5"
"6.4.2","Reversal_Task","1","2021-08-16","20:53:30","presentation_left","Experiment_block_leftstart","house.bmp","0","70","36","1552","36","96","14","38","4","Acquisiton","14","38","0.8000000000000000444","0.2000000000000000111","IRIF","0","-1","1","1","163","0","","0","1","left","17","30","50.5","0"
"6.4.2","Reversal_Task","1","2021-08-16","20:53:30","fixation","Experiment_block_leftstart","+","0","70","36","1552","36","96","14","38","4","Acquisiton","14","38","0.8000000000000000444","0.2000000000000000111","IRIF","0","-1","1","1","163","0","","0","1","left","0","30","50.5","0"
"6.4.2","Reversal_Task","1","2021-08-16","20:53:30","presentation_left","Experiment_block_leftstart","house.bmp","0","70","36","177","36","96","14","38","4","Acquisiton","14","38","0.8000000000000000444","0.2000000000000000111","IRIF","0","-1","1","2","164","0","","0","2","left","0","30","50.5","0"
"6.4.2","Reversal_Task","1","2021-08-16","20:53:30","fixation","Experiment_block_leftstart","+","0","70","36","177","36","96","14","38","4","Acquisiton","14","38","0.8000000000000000444","0.2000000000000000111","IRIF","0","-1","1","2","164","0","","0","2","left","0","30","50.5","0"
"6.4.2","Reversal_Task","1","2021-08-16","20:53:30","presentation_left","Experiment_block_leftstart","house.bmp","0","70","0","2000","36","96","14","38","4","Acquisiton","14","38","0.8000000000000000444","0.2000000000000000111","NRNF","0","0","1","3","165","0","","0","2","left","0","30","50.5","0"
"6.4.2","Reversal_Task","1","2021-08-16","20:53:30","fixation","Experiment_block_leftstart","+","0","70","0","2000","36","96","14","38","4","Acquisiton","14","38","0.8000000000000000444","0.2000000000000000111","NRNF","0","0","1","3","165","0","","0","2","left","0","30","50.5","0"
"6.4.2","Reversal_Task","1","2021-08-16","20:53:30","presentation_left","Experiment_block_leftstart","house.bmp","0","70","36","602","36","96","14","38","4","Acquisiton","14","38","0.8000000000000000444","0.2000000000000000111","IRCF","0","-1","-1","4","166","0","","0","3","left","0","30","50.5","0"
"6.4.2","Reversal_Task","1","2021-08-16","20:53:30","fixation","Experiment_block_leftstart","+","0","70","36","602","36","96","14","38","4","Acquisiton","14","38","0.8000000000000000444","0.2000000000000000111","IRCF","0","-1","-1","4","166","1","","0","3","left","0","30","50.5","0.5"
"6.4.2","Reversal_Task","1","2021-08-16","20:53:30","presentation_left","Experiment_block_leftstart","house.bmp","0","70","36","88","36","96","14","38","4","Acquisiton","14","38","0.8000000000000000444","0.2000000000000000111","IRIF","0","-1","1","5","167","1","","0","4","left","0","30","50.5","0.5"
"6.4.2","Reversal_Task","1","2021-08-16","20:53:30","fixation","Experiment_block_leftstart","+","0","70","36","88","36","96","14","38","4","Acquisiton","14","38","0.8000000000000000444","0.2000000000000000111","IRIF","0","-1","1","5","167","1","","0","4","left","0","30","50.5","0.5"
"6.4.2","Reversal_Task","1","2021-08-16","20:53:30","presentation_left","Experiment_block_leftstart","house.bmp","16","70","33","295","36","96","14","38","4","Acquisiton","14","38","0.8000000000000000444","0.2000000000000000111","CRCF","0","1","1","6","168","1","","1","4","left","0","30","50.5","0.5"
"6.4.2","Reversal_Task","1","2021-08-16","20:53:30","fixation","Experiment_block_leftstart","+","16","70","33","295","36","96","14","38","4","Acquisiton","14","38","0.8000000000000000444","0.2000000000000000111","CRCF","0","1","1","6","168","2","","1","4","left","1","30","50.5","1"
"6.4.2","Reversal_Task","1","2021-08-16","20:53:30","presentation_left","Experiment_block_leftstart","house.bmp","28","70","33","543","36","96","14","38","4","Acquisiton","14","38","0.8000000000000000444","0.2000000000000000111","CRCF","0","1","1","7","169","2","","2","4","left","1","30","50.5","1"
"6.4.2","Reversal_Task","1","2021-08-16","20:53:30","fixation","Experiment_block_leftstart","+","28","70","33","543","36","96","14","38","4","Acquisiton","14","38","0.8000000000000000444","0.2000000000000000111","CRCF","0","1","1","7","169","3","","2","4","left","2","30","50.5","1.5"
"6.4.2","Reversal_Task","1","2021-08-16","20:53:30","presentation_left","Experiment_block_leftstart","house.bmp","37","70","33","453","36","96","14","38","4","Acquisiton","14","38","0.8000000000000000444","0.2000000000000000111","CRCF","0","1","1","8","170","3","","3","4","left","2","30","50.5","1.5"
"6.4.2","Reversal_Task","1","2021-08-16","20:53:30","fixation","Experiment_block_leftstart","+","37","70","33","453","36","96","14","38","4","Acquisiton","14","38","0.8000000000000000444","0.2000000000000000111","CRCF","0","1","1","8","170","4","","3","4","left","3","30","50.5","2"
"6.4.2","Reversal_Task","1","2021-08-16","20:53:30","presentation_left","Experiment_block_leftstart","house.bmp","44","70","33","194","36","96","14","38","4","Acquisiton","14","38","0.8000000000000000444","0.2000000000000000111","CRIF","0","1","-1","9","171","4","","4","4","left","3","30","50.5","2"
"6.4.2","Reversal_Task","1","2021-08-16","20:53:30","fixation","Experiment_block_leftstart","+","44","70","33","194","36","96","14","38","4","Acquisiton","14","38","0.8000000000000000444","0.2000000000000000111","CRIF","0","1","-1","9","171","4","","4","4","left","4","30","50.5","2"
"6.4.2","Reversal_Task","1","2021-08-16","20:53:30","presentation_left","Experiment_block_leftstart","house.bmp","50","70","33","1093","36","96","14","38","4","Acquisiton","14","38","0.8000000000000000444","0.2000000000000000111","CRCF","0","1","1","10","172","4","","5","4","left","4","30","50.5","2"
"6.4.2","Reversal_Task","1","2021-08-16","20:53:30","fixation","Experiment_block_leftstart","+","50","70","33","1093","36","96","14","38","4","Acquisiton","14","38","0.8000000000000000444","0.2000000000000000111","CRCF","0","1","1","10","172","5","","5","4","left","5","30","50.5","2.5"
"6.4.2","Reversal_Task","1","2021-08-16","20:53:30","presentation_left","Experiment_block_leftstart","house.bmp","54","70","33","1046","36","96","14","38","4","Acquisiton","14","38","0.8000000000000000444","0.2000000000000000111","CRCF","0","1","1","11","173","5","","6","4","left","5","30","50.5","2.5"
"6.4.2","Reversal_Task","1","2021-08-16","20:53:30","fixation","Experiment_block_leftstart","+","54","70","33","1046","36","96","14","38","4","Acquisiton","14","38","0.8000000000000000444","0.2000000000000000111","CRCF","0","1","1","11","173","6","","6","4","left","6","30","50.5","3"
"6.4.2","Reversal_Task","1","2021-08-16","20:53:30","presentation_left","Experiment_block_leftstart","house.bmp","58","70","33","702","36","96","14","38","4","Acquisiton","14","38","0.8000000000000000444","0.2000000000000000111","CRCF","0","1","1","12","174","6","","7","4","left","6","30","50.5","3"
"6.4.2","Reversal_Task","1","2021-08-16","20:53:30","fixation","Experiment_block_leftstart","+","58","70","33","702","36","96","14","38","4","Acquisiton","14","38","0.8000000000000000444","0.2000000000000000111","CRCF","0","1","1","12","174","7","","7","4","left","7","30","50.5","3.5"
"6.4.2","Reversal_Task","1","2021-08-16","20:53:30","presentation_left","Experiment_block_leftstart","house.bmp","61","70","33","1247","36","96","14","38","4","Acquisiton","14","38","0.8000000000000000444","0.2000000000000000111","CRCF","0","1","1","13","175","7","","8","4","left","7","30","50.5","3.5"
"6.4.2","Reversal_Task","1","2021-08-16","20:53:30","fixation","Experiment_block_leftstart","+","61","70","33","1247","36","96","14","38","4","Acquisiton","14","38","0.8000000000000000444","0.2000000000000000111","CRCF","0","1","1","13","175","8","","8","4","left","8","30","50.5","4"
"6.4.2","Reversal_Task","1","2021-08-16","20:53:30","presentation_left","Experiment_block_leftstart","house.bmp","64","70","33","186","36","96","14","38","4","Acquisiton","14","38","0.8000000000000000444","0.2000000000000000111","CRCF","0","1","1","14","176","8","","9","4","left","8","30","50.5","4"
"6.4.2","Reversal_Task","1","2021-08-16","20:53:30","fixation","Experiment_block_leftstart","+","64","70","33","186","36","96","14","38","4","Acquisiton","14","38","0.8000000000000000444","0.2000000000000000111","CRCF","0","1","1","14","176","9","","9","4","left","9","30","50.5","4.5"
"6.4.2","Reversal_Task","1","2021-08-16","20:53:30","presentation_left","Experiment_block_leftstart","house.bmp","66","70","33","269","36","96","14","38","4","Acquisiton","14","38","0.8000000000000000444","0.2000000000000000111","CRIF","0","1","-1","15","177","9","","10","4","left","9","30","50.5","4.5"
"6.4.2","Reversal_Task","1","2021-08-16","20:53:30","fixation","Experiment_block_leftstart","+","66","70","33","269","36","96","14","38","4","Acquisiton","14","38","0.8000000000000000444","0.2000000000000000111","CRIF","0","1","-1","15","177","9","","10","4","left","10","30","50.5","4.5"
